time,accel_x,accel_y,accel_z
2024-10-23 10:47:18.035210,2.945375991514325,0.5423758156135678,-9.512841825714707
2024-10-23 10:47:18.045217,2.9379405808165666,1.0738149344101549,-7.578613884556293
2024-10-23 10:47:18.055225,2.7154586901202795,1.5136001441210507,-6.193734228372573
2024-10-23 10:47:18.065232,2.5246891577661037,1.8544553162634372,-5.321213142940402
2024-10-23 10:47:18.075238,2.4419060990087686,2.2293659027427433,-4.4677655912905925
2024-10-23 10:47:18.085246,2.0306506720811126,2.5294568105593322,-3.711712830466032
2024-10-23 10:47:18.095253,1.384690563352406,2.5700831277191636,-2.5850842974960804
2024-10-23 10:47:18.105260,1.052517879359424,2.7348049033641812,-1.2426882767766714
2024-10-23 10:47:18.115267,0.8304628357730806,2.9408675741791725,-0.04543313291966915
2024-10-23 10:47:18.125273,0.9118376351676881,3.00926189596951,0.9599135376811027
2024-10-23 10:47:18.135281,1.1308926932204515,2.9389123484581705,1.9766700755685567
2024-10-23 10:47:18.145288,1.1731889894191174,2.8887592012792824,3.0979227607190607
2024-10-23 10:47:18.155295,0.8901288575109094,2.945325138109922,4.171046497994661
2024-10-23 10:47:18.165302,0.554649021731317,2.932934443092346,5.076140650251507
2024-10-23 10:47:18.175308,0.16873994351150468,2.7478695521205663,6.088447807514667
2024-10-23 10:47:18.185316,-0.3036209633725695,2.618093417650461,7.366691966319084
2024-10-23 10:47:18.195323,-1.2163741242162882,2.3415286391109227,9.322830710512399
2024-10-23 10:47:18.205330,-1.8944465503901242,2.3849036704570055,11.480493897569179
2024-10-23 10:47:18.215336,-1.8018094754859804,2.54041805729568,12.205298702692986
2024-10-23 10:47:18.225343,-1.61706256442219,2.2434569719374178,11.621159090322255
2024-10-23 10:47:18.235351,-2.0886682690247893,1.9785452217906712,11.346481732964515
2024-10-23 10:47:18.245358,-2.634309516175091,2.2598399514615535,11.699320188367366
2024-10-23 10:47:18.255365,-2.6608295665711164,2.818188119971752,11.579439424967765
2024-10-23 10:47:18.265372,-2.765677596011758,2.8406846139401196,10.782594635027646
2024-10-23 10:47:18.275378,-2.9340076252818106,2.556973470777273,9.690274614372848
2024-10-23 10:47:18.285386,-2.77369256016314,2.43166951328516,8.15542885312736
2024-10-23 10:47:18.295393,-2.8413316796720025,2.072135359635949,6.863417450255155
2024-10-23 10:47:18.305400,-2.973087882043421,1.6596826857477425,5.997921148893237
2024-10-23 10:47:18.315407,-3.045629971162975,1.4313321952790021,4.95817478056252
2024-10-23 10:47:18.325415,-3.0246412514090535,1.0385358234971762,4.116561459091305
2024-10-23 10:47:18.335421,-2.5888722916021942,0.688142423158884,3.625232232365012
2024-10-23 10:47:18.345428,-1.9448704773344099,0.4092746283739805,3.4666105271607637
2024-10-23 10:47:18.355436,-1.373295309112966,0.3031555560842156,3.611598259288072
2024-10-23 10:47:18.365443,-1.242465281675756,0.42954877011775966,3.8816356818854807
2024-10-23 10:47:18.375449,-1.102280346720293,0.5601444042772055,3.844479963445663
2024-10-23 10:47:18.385457,-0.7886803343154489,0.6594689941212535,3.680679394298792
2024-10-23 10:47:18.395463,-0.5153608213074505,0.8552449564605951,3.365470120066404
2024-10-23 10:47:18.405471,-0.08639218916520476,1.1461515640854836,2.7317911085009574
2024-10-23 10:47:18.415478,0.38973040833994743,1.4272379117026923,1.8408154979676008
2024-10-23 10:47:18.425484,0.7899145522855222,1.6676222465753554,0.6153267777949571
2024-10-23 10:47:18.435492,1.085098691099137,2.0260430321551857,-1.1958844400256872
2024-10-23 10:47:18.445498,1.2465826538667082,2.309648230725527,-3.3582033439338206
2024-10-23 10:47:18.455506,1.6409614725343882,2.274698351766914,-5.326124880379438
2024-10-23 10:47:18.465513,2.7100840113446116,2.355189500194788,-6.8970262898683545
2024-10-23 10:47:18.475519,3.9198666283413766,2.487192078542709,-8.463076167672872
2024-10-23 10:47:18.485527,4.580952994531393,2.5728809417441485,-10.076175381422042
2024-10-23 10:47:18.495534,4.639632854776084,2.85002702730298,-11.564895351308584
2024-10-23 10:47:18.505541,4.460716257300973,3.007408084796369,-12.599189299452304
2024-10-23 10:47:18.515548,4.455187849268317,2.8094103547543288,-12.817373785215615
2024-10-23 10:47:18.635633,2.1533393325082955,2.5548139546558257,-2.172344038838148
2024-10-23 10:47:18.645639,1.886748104842007,2.603438284832239,-0.41864743687510486
2024-10-23 10:47:18.655647,1.7275107519574462,2.644386089031398,1.0323130034595727
2024-10-23 10:47:18.665653,1.5625985683068633,2.5965306974008677,2.191572470921278
2024-10-23 10:47:18.675661,1.2751076143443583,2.48294698831886,3.1582723077416417
2024-10-23 10:47:18.685668,0.9114223323650658,2.3847858892962335,4.342901778781414
2024-10-23 10:47:18.695674,0.534967913977243,2.384122749212384,5.473098233366012
2024-10-23 10:47:18.705682,0.12845131560713052,2.402047697481513,6.341462199118733
2024-10-23 10:47:18.715688,-0.2473295509006828,2.328819379663467,6.926568610695004
2024-10-23 10:47:18.725696,-0.591362732024677,2.1812088978171347,7.381792504817247
2024-10-23 10:47:18.735703,-0.8910942684769629,2.0258266129255293,7.901767395791411
2024-10-23 10:47:18.745709,-1.1703630452781915,1.9594541523516178,8.431023325330019
2024-10-23 10:47:18.755717,-1.3883844494342803,1.8669114777326583,8.776799587261676
2024-10-23 10:47:18.765723,-1.5603598494693636,1.6804378890067337,8.914440463757515
2024-10-23 10:47:18.775731,-1.7713273895911872,1.476592309719324,8.900137213116883
2024-10-23 10:47:18.785738,-2.113119111931324,1.3066449083805083,8.758921400743722
2024-10-23 10:47:18.795744,-2.404005553551018,1.1969938625723122,8.570963710939884
2024-10-23 10:47:18.805753,-2.602867791467905,1.0337053346008063,8.48357885747552
2024-10-23 10:47:18.815759,-2.5041055116817352,0.9178951816409826,8.443959963792562
2024-10-23 10:47:18.825767,-2.402772066233307,0.8077122209131717,8.408309973740577
2024-10-23 10:47:18.835773,-2.40458013856858,0.6272749897420405,8.354937279993296
2024-10-23 10:47:18.845781,-2.3852971998192367,0.5521002140313387,8.222521444669365
2024-10-23 10:47:18.855788,-2.400400514796376,0.7006488535106181,8.026442992252111
2024-10-23 10:47:18.865794,-2.4265859264105556,0.7517337285816669,7.941395641824602
2024-10-23 10:47:18.875802,-2.3617091112218795,0.8830623531907796,7.79386114782393
2024-10-23 10:47:18.885808,-2.2423349821701644,1.1215215652197599,7.488124635335803
2024-10-23 10:47:18.895816,-2.0427133041881023,1.2740893772125244,6.91652477106452
2024-10-23 10:47:18.905823,-1.7237275801569223,1.315683370360732,6.225364461389184
2024-10-23 10:47:18.915829,-1.1566084414962678,1.4362369184553623,5.28247921539843
2024-10-23 10:47:18.925837,-0.7574832320190966,1.6421110809609294,3.9495822599083183
2024-10-23 10:47:18.935844,-0.27712358146607874,1.837853141030669,2.1582126376330852
2024-10-23 10:47:18.945851,0.20897731615267692,1.8176015033796429,0.01549275268614292
2024-10-23 10:47:18.955858,0.7925457045067101,1.8405869499087333,-1.5910072089284657
2024-10-23 10:47:18.965864,1.6018407376319168,2.0863186371587217,-2.580978031221032
2024-10-23 10:47:18.975872,2.1958932567298413,2.30168791937083,-3.39250191937685
2024-10-23 10:47:18.985878,2.5003362222760916,2.4624141956388947,-4.161329990622401
2024-10-23 10:47:18.995886,2.6120307566106318,2.6869278844237328,-5.165139368653297
2024-10-23 10:47:19.005893,2.712971841740608,2.740596930769086,-6.533938243129849
2024-10-23 10:47:19.015899,3.014384353549778,2.7353555229842663,-7.781026800692081
2024-10-23 10:47:19.025907,3.227926274204254,2.827319520932436,-8.773440924483538
2024-10-23 10:47:19.035913,3.389323873862624,2.728274624812603,-9.716861008003354
2024-10-23 10:47:19.045922,3.5554759745717046,2.4736697491467,-10.658896943688392
2024-10-23 10:47:19.055929,3.437043948675692,2.250062653812766,-11.695590938711165
2024-10-23 10:47:19.065936,3.303891908031702,2.107956322340667,-12.55016544856429
2024-10-23 10:47:19.075943,3.2636887847200033,1.9425860196590423,-12.782401840555668
2024-10-23 10:47:19.085949,3.5325764527603982,1.660933270330727,-12.774791365551948
2024-10-23 10:47:19.095957,3.6071386495307087,1.3257909228771925,-12.414781995606422
2024-10-23 10:47:19.105963,3.4365859757751225,1.1683223332308232,-11.449054803210496
2024-10-23 10:47:19.115971,3.226251911251247,1.3006751863211392,-10.32252563896179
2024-10-23 10:47:19.125978,2.9994401746571064,1.5856284384995698,-9.021497401419282
2024-10-23 10:47:19.135984,2.8561513554021714,1.8475240556955337,-7.44064567580223
2024-10-23 10:47:19.145992,2.664763398888707,2.124239640882611,-5.941093346256017
2024-10-23 10:47:19.155998,2.666891643089056,2.2084365119606257,-4.832158875408768
2024-10-23 10:47:19.166006,2.6994027505934235,2.332682484832406,-3.799131586199999
2024-10-23 10:47:19.176013,2.5592963607668877,2.5333652161747215,-2.7085639621704813
2024-10-23 10:47:19.186019,2.3926713818490506,2.839934380094707,-1.449481015431881
2024-10-23 10:47:19.196027,2.2062774342305955,3.012520020982623,-0.3962228390991688
2024-10-23 10:47:19.206033,1.8994740231633185,2.9749577675685286,0.7903273708701133
2024-10-23 10:47:19.216041,1.524973332659155,2.876989268508553,2.240709719055891
2024-10-23 10:47:19.226048,1.1745939608462155,2.7341873559877277,3.485705688253045
2024-10-23 10:47:19.236054,0.8656134249355644,2.502082189160585,4.333408558771014
2024-10-23 10:47:19.246062,0.5527285385301336,2.2822324005335566,4.955242234241962
2024-10-23 10:47:19.256068,0.2177875954002142,2.222870695504546,5.515552642735838
2024-10-23 10:47:19.266077,-0.05755022602709941,2.2195441814303396,5.885142910975217
2024-10-23 10:47:19.276083,-0.24953226684303953,2.1001041475355624,6.286186302098631
2024-10-23 10:47:19.286091,-0.4366442082714289,2.0094594154924152,6.99856534089148
2024-10-23 10:47:19.296098,-0.44199177984446286,1.9020470885217189,7.883208241271972
2024-10-23 10:47:19.306104,-0.3551189675554633,1.6872481535434722,8.627096517050266
2024-10-23 10:47:19.316112,-0.31391185483299194,1.3202473172754048,9.073556089958547
2024-10-23 10:47:19.326118,-0.41587680311799047,0.9847703310400246,9.282782777762412
2024-10-23 10:47:19.336126,-0.6556742780134082,0.82021105248034,9.218597598099707
2024-10-23 10:47:19.346133,-1.0682586885225027,0.7476309694379568,9.193909731566906
2024-10-23 10:47:19.356138,-1.5096138509638606,0.7765747398495674,9.170247116428612
2024-10-23 10:47:19.366145,-1.859466714684665,0.9187053289800882,9.092598059558869
2024-10-23 10:47:19.376153,-2.022033358122408,1.1063713423609733,8.979420008668303
2024-10-23 10:47:19.386159,-1.955645115457475,1.2147142281800507,8.79574043457508
2024-10-23 10:47:19.396166,-1.7599419260933995,1.2832009044289587,8.548270817616581
2024-10-23 10:47:19.406173,-1.5359187973044812,1.4027151726037264,8.181827615231276
2024-10-23 10:47:19.416181,-1.3301339205175637,1.450260183110833,7.702103486102819
2024-10-23 10:47:19.426188,-1.0014831270404159,1.521636151060462,7.078382389450073
2024-10-23 10:47:19.436194,-0.7363263891566544,1.5646645609259604,6.354621540421247
2024-10-23 10:47:19.446201,-0.45198509486410765,1.5334978537678718,5.620263894054293
2024-10-23 10:47:19.456208,-0.15498269111476837,1.6424796220123767,4.88853484262526
2024-10-23 10:47:19.466215,0.030504471256537363,1.9497864525571464,4.0964615048706525
2024-10-23 10:47:19.476223,0.2528764261717908,2.3731962815284726,3.1587370026439427
2024-10-23 10:47:19.486229,0.45632148010060186,2.672492239575088,1.8013900810301302
2024-10-23 10:47:19.496238,0.580194089615345,2.7789751767411826,0.03876724528968334
2024-10-23 10:47:19.506244,0.5192353611858561,2.749251361867785,-2.083264071893692
2024-10-23 10:47:19.516251,0.6005499182932078,2.660088392814994,-4.162872543889284
2024-10-23 10:47:19.526258,0.9463622744515537,2.4280023690797385,-5.8824885970741505
2024-10-23 10:47:19.536266,1.3762804624035954,2.233549179776758,-7.407164846482872
2024-10-23 10:47:19.546273,1.956145173934102,2.1819633694462475,-8.926319702121615
2024-10-23 10:47:19.556279,2.5167554421573874,1.9909397162005305,-10.297994424295425
2024-10-23 10:47:19.566286,2.744078343144059,1.7049553674086928,-11.242764168858528
2024-10-23 10:47:19.576293,2.6188977197706698,1.5430290677011012,-11.5993704523623
2024-10-23 10:47:19.586300,2.2348053173176945,1.3074562247633934,-11.643802299284934
2024-10-23 10:47:19.596308,1.9760573504976926,1.085566893132776,-11.674710647767782
2024-10-23 10:47:19.606314,1.8904050199143587,1.042759432541579,-11.50216329306364
2024-10-23 10:47:19.616321,1.7664831644304095,0.9863495630554854,-11.08635897065997
2024-10-23 10:47:19.626329,1.8535773643851279,0.7415937351003289,-10.362188956308364
2024-10-23 10:47:19.636335,2.1309246716044843,0.5882243974663317,-9.660732878068089
2024-10-23 10:47:19.646343,2.143221258597821,0.6478406617783009,-8.840750958168506
2024-10-23 10:47:19.656349,2.308060084751248,0.8793786962419747,-7.8834595856845375
2024-10-23 10:47:19.666356,2.7411890514433384,1.0270385701879858,-6.855038328966498
2024-10-23 10:47:19.676363,2.7826228855937716,1.1533582805939018,-5.645413532879949
2024-10-23 10:47:19.686370,2.5367826234027744,1.3320347857028245,-4.130323442462086
2024-10-23 10:47:19.696378,2.5146909108430147,1.5704408062398432,-2.7876111954003573
2024-10-23 10:47:19.706385,2.5983666806563734,1.6669991462409495,-1.7755232338458298
2024-10-23 10:47:19.716393,2.5145211072340605,1.6904916655093432,-0.7582207525134086
2024-10-23 10:47:19.726399,2.1789223943151534,1.722111084870994,0.428882415163517
2024-10-23 10:47:19.736406,1.7250414392344653,1.7915902792885898,1.795806727939844
2024-10-23 10:47:19.746414,1.3907824504867194,1.7254039889365433,3.1330560334205626
2024-10-23 10:47:19.756420,1.2297333720050752,1.5822139538809656,4.236497167548537
2024-10-23 10:47:19.766428,1.0591584864176808,1.383556298625469,5.0578018604844805
2024-10-23 10:47:19.776434,0.766989165380597,1.2026754153400658,5.796536406761407
2024-10-23 10:47:19.786441,0.4744868129968643,1.0920382811039686,6.387936950045824
2024-10-23 10:47:19.796448,0.2485927392369136,1.1317588815957307,6.672477529770135
2024-10-23 10:47:19.806455,0.02386405599452555,1.1832932539999483,6.7933695160388945
2024-10-23 10:47:19.816463,-0.11512856390383094,1.1564327196031807,6.910884719350934
2024-10-23 10:47:19.826469,-0.30279855934008953,1.0775029752731322,7.1341241504162545
2024-10-23 10:47:19.836476,-0.5018319525728002,1.0253221216589212,7.33447195071578
2024-10-23 10:47:19.846483,-0.6429590272165835,0.9455985966026782,7.5499191204696885
2024-10-23 10:47:19.856491,-0.655785848629102,0.8834744411230087,7.670715245148539
2024-10-23 10:47:19.866498,-0.7314294839605688,0.8889134173065424,7.75956198785901
2024-10-23 10:47:19.876504,-0.9739376060541719,0.9632973349004983,7.746158316406607
2024-10-23 10:47:19.886511,-1.2179407890111207,0.9918716874778271,7.732927663433552
2024-10-23 10:47:19.896518,-1.2605319765031338,1.0475374605983494,7.824469636577367
2024-10-23 10:47:19.906526,-1.2140909817151724,1.1883978836625815,7.877585725215077
2024-10-23 10:47:19.916533,-1.2026388096567242,1.3841244539022446,7.781299772414565
2024-10-23 10:47:19.926540,-1.0792715923808514,1.573027900123596,7.502173618954419
2024-10-23 10:47:19.936548,-0.821523523318395,1.7387211511492728,6.94209292756319
2024-10-23 10:47:19.946554,-0.5574231991523877,1.7917606674194335,6.100016664755344
2024-10-23 10:47:19.956561,-0.3088794136237353,1.6196955432742832,5.282825252357125
2024-10-23 10:47:19.966568,-0.12807937702219932,1.457575182299316,4.481023716792464
2024-10-23 10:47:19.976576,0.03189869296075776,1.4633540579617024,3.2233506368517872
2024-10-23 10:47:19.986583,0.10498259733943269,1.503424202543497,1.389970257321
2024-10-23 10:47:19.996589,0.13265665834248064,1.43116852914989,-0.6670353377223014
2024-10-23 10:47:20.006596,0.32248635256327685,1.3689365293815732,-2.8919109433084724
2024-10-23 10:47:20.016603,0.821950516558811,1.3004925232306122,-5.144920171967149
2024-10-23 10:47:20.026610,1.7622008109360932,0.8843085538595914,-6.919563700369
2024-10-23 10:47:20.036618,2.6555209387689827,0.4552382149085402,-7.529032984307408
2024-10-23 10:47:20.046624,2.6858406737089155,0.25049422547668215,-7.199284312590956
2024-10-23 10:47:20.056631,2.220982543670386,0.057627720843255514,-6.9040428906321525
2024-10-23 10:47:20.066639,1.699007272659242,-0.0069321373507380485,-7.0831094179719685
2024-10-23 10:47:20.076645,1.2375325014486909,0.059981298232078546,-7.644277904599905
2024-10-23 10:47:20.086653,1.0390245568621903,0.13155571136325597,-8.209458549478649
2024-10-23 10:47:20.096659,0.9229312761120497,0.12372530999854206,-8.48723328832984
2024-10-23 10:47:20.106666,0.7980842686071992,0.06754369631037116,-8.431509063020348
2024-10-23 10:47:20.116674,0.610505933509767,0.08529898710101842,-8.040764363071322
2024-10-23 10:47:20.126681,0.4524398163616657,0.20027707315087317,-7.375784788835048
2024-10-23 10:47:20.136688,0.5267768260739744,0.33194559723883865,-6.396856169560551
2024-10-23 10:47:20.146695,0.58683338149935,0.41016953138709067,-5.280499439758062
2024-10-23 10:47:20.156703,0.4423492149800062,0.5235495345905423,-4.049565313661098
2024-10-23 10:47:20.166709,0.23481815211288629,0.8084323518812656,-2.5895728410869836
2024-10-23 10:47:20.176716,-0.07884973789639771,1.041089015111327,-1.198380348494649
2024-10-23 10:47:20.186724,-0.34979974529407915,1.10069826516062,0.12683131318986415
2024-10-23 10:47:20.196730,-0.4555265303306281,1.1784577966675163,1.4805319872558116
2024-10-23 10:47:20.206738,-0.47592729412876067,1.2036796239465475,2.689370016878843
2024-10-23 10:47:20.216744,-0.4816695641078055,1.1779036699160932,3.6997172722458838
2024-10-23 10:47:20.226751,-0.30770182121172546,1.0792705694675444,4.44043100964129
2024-10-23 10:47:20.236758,-0.1184417070398107,0.941645182801783,5.064239784577489
2024-10-23 10:47:20.246765,0.027842238910496232,0.8307225096225738,5.307214428204298
2024-10-23 10:47:20.256773,0.131341885949485,0.7206067689120769,4.751741522869468
2024-10-23 10:47:20.266779,-0.0770080920850858,0.5425085020825267,3.868546483209729
2024-10-23 10:47:20.276786,-0.43254247204102575,0.42581776689589024,3.0445243480086326
2024-10-23 10:47:20.286793,-0.6468674328319728,0.3560980417206883,2.3412533293008804
2024-10-23 10:47:20.296800,-0.5125962154323235,0.09439531674832105,1.823815263327956
2024-10-23 10:47:20.306809,-0.40032863045018163,-0.06646306146681308,1.859739394146204
2024-10-23 10:47:20.316815,-0.27549945086296646,-0.09599281507283448,1.889260087662935
2024-10-23 10:47:20.326822,-0.2806889457974583,-0.09868804550617932,1.5871102014899252
2024-10-23 10:47:20.336829,-0.20837376076895742,-0.16492168213129044,0.9747054486215114
2024-10-23 10:47:20.346836,-0.051409357785061,-0.3750032331988215,0.27849077816605566
2024-10-23 10:47:20.356844,0.04947338475380093,-0.458571450984478,-0.572105475705862
2024-10-23 10:47:20.366851,0.08960468493830412,-0.3455260865628719,-1.32874217389822
2024-10-23 10:47:20.376858,0.2500291287155822,-0.34151714318245646,-1.9144670096337795
2024-10-23 10:47:20.386865,0.415511696132645,-0.7004369643256068,-1.7740175054579972
2024-10-23 10:47:20.396872,0.6053937050625682,-0.7096937452316284,-0.8641063083082438
2024-10-23 10:47:20.406879,0.5043110925700515,-0.4945370828568935,0.03772095110714435
2024-10-23 10:47:20.416886,0.29232480385974047,-0.2652507728427648,0.3090858229160309
2024-10-23 10:47:20.426893,0.15926387556530533,-0.1068523550003767,-0.32938977527618407
2024-10-23 10:47:20.436900,0.191368740356341,-0.05035276140421629,-1.3789502661347388
2024-10-23 10:47:20.446907,0.08828574782684445,0.16734335632026195,-2.024582750344276
2024-10-23 10:47:20.456914,-0.1178434854183346,0.46566696220338344,-2.0598335119456053
2024-10-23 10:47:20.466921,-0.25273995857685805,0.6092243692666292,-1.5309353098034857
2024-10-23 10:47:20.476928,-0.33290881624780594,0.6393886213839054,-0.7271504914671182
2024-10-23 10:47:20.486935,-0.5309791731346398,0.7023395830765367,0.27028175274729727
2024-10-23 10:47:20.496943,-0.7499173998747021,0.7851067136123776,0.9255880742311478
2024-10-23 10:47:20.506950,-0.7676949755623936,0.5683142667293548,1.0797913784712552
2024-10-23 10:47:20.516957,-0.42461635521687563,0.24414894810318946,0.968365139684081
2024-10-23 10:47:20.526964,0.14524272980168462,0.16113982550501824,0.9719722242653369
2024-10-23 10:47:20.536971,0.5867079284887761,0.31422318580448627,0.7413415139049291
2024-10-23 10:47:20.546978,0.6741342830073088,0.6243295839399099,0.19620821627676485
2024-10-23 10:47:20.556985,-0.06916910555511713,-0.19606734650135038,0.6941162368714809
2024-10-23 10:47:20.566992,-0.6175803288754076,-0.3801566704392433,0.973900561979413
2024-10-23 10:47:20.576999,-0.5684478299811482,0.05309972202479839,0.667276745262742
2024-10-23 10:47:20.587006,0.16049100620746612,-0.10309037211835384,0.7534820335537195
2024-10-23 10:47:20.597013,0.037168943247571584,0.020853987458348273,-0.2849035678178072
2024-10-23 10:47:20.607020,-0.34913207516558464,0.041004795083403586,-1.0183177958548069
2024-10-23 10:47:20.617027,0.46003217118680473,-1.6987492062449454,-1.072812771630287
2024-10-23 10:47:20.627034,1.4854796727910637,-2.5805039839684962,-2.6811019547492263
2024-10-23 10:47:20.637041,1.8561818477950989,-1.617120724350214,-4.189369505670666
2024-10-23 10:47:20.647047,1.696367425674945,-0.37914837017953396,-3.8392894090652465
2024-10-23 10:47:20.657055,1.105976863150671,0.29557927561104297,-2.6757734532028437
2024-10-23 10:47:20.667062,0.14544833537638185,0.5523544810533523,-1.2355693846821785
2024-10-23 10:47:20.677069,-0.7984327167186885,0.8852367746204137,0.18113281221985816
2024-10-23 10:47:20.687077,-1.2734582397021352,1.2707768916636704,1.2498463318377733
2024-10-23 10:47:20.697084,-1.3399924667090177,1.300022859892249,1.793738689494133
2024-10-23 10:47:20.707091,-1.0828569035217166,0.997487189272046,1.867268036085367
2024-10-23 10:47:20.717098,-0.5949973987326026,0.5820037693858147,1.4489888480007647
2024-10-23 10:47:20.727105,0.03934899070039391,0.19439853650629518,0.5748802011162042
2024-10-23 10:47:20.737112,0.6227327432025224,-0.008937339693307875,-0.2862742716491222
2024-10-23 10:47:20.747119,0.8523353526242077,-0.0960036287277937,-0.8413865269780159
2024-10-23 10:47:20.757126,0.7533851490505039,-0.15313888987898824,-1.0040700747936964
2024-10-23 10:47:20.767132,0.4521468247644603,-0.18379530942738054,-0.8658616275429725
2024-10-23 10:47:20.777140,0.11980945172905921,-0.14731062211692333,-0.5213765744656325
2024-10-23 10:47:20.787147,-0.2298123797148466,0.030704350343346593,-0.032516368201375004
2024-10-23 10:47:20.797154,-0.5039230431005358,0.19146482114195823,0.4422603676527738
2024-10-23 10:47:20.807161,-0.5245150916870683,0.22257658324241636,0.5782289270222186
2024-10-23 10:47:20.817168,-0.28343159556910397,0.15225450825989245,0.517608161842823
2024-10-23 10:47:20.827175,0.06432889898233116,-0.003750292444229126,0.3526549155294895
2024-10-23 10:47:20.837182,0.28655732637420295,-0.08798983362019061,0.21094868929088115
2024-10-23 10:47:20.847189,0.23806414829678832,-0.1276221713066101,0.12901976314485072
2024-10-23 10:47:20.857196,0.1316658937394619,-0.1658592552423477,0.058063481912016865
2024-10-23 10:47:20.867203,0.22826434655524788,-0.1924029787749052,-0.053149990907311435
2024-10-23 10:47:20.877211,0.3739122961569577,-0.23315935205519198,-0.04555237538516521
2024-10-23 10:47:20.887217,0.4099916906021535,-0.2988333089709282,-0.011380056670308112
2024-10-23 10:47:20.897225,0.32326727380789816,-0.2551315298885107,0.0050374096453189845
2024-10-23 10:47:20.907232,0.16595065985284746,-0.0945084217339754,0.10216565848886966
2024-10-23 10:47:20.917239,0.0026757950805127617,0.059300330230593674,0.16058920588493347
2024-10-23 10:47:20.927246,-0.02325863744728267,0.018957798448204992,0.1984890206903219
2024-10-23 10:47:20.937253,-0.034850948628783227,0.030851649859547612,0.2882973019093275
2024-10-23 10:47:20.947260,-0.06680836777314543,0.05875204869806766,0.3100333328992128
2024-10-23 10:47:20.957267,-0.04096833553053438,0.07741992428898811,0.18468787435293196
2024-10-23 10:47:20.967274,-0.009108677672222256,0.024209727627038956,0.014932780715823173
2024-10-23 10:47:20.977281,-0.004154927722364664,-0.01213701251745224,-0.13468787190914153
2024-10-23 10:47:20.987288,-0.15337240637391805,0.02339899576604366,-0.2303004554927349
2024-10-23 10:47:20.997295,-0.1662366371873766,0.04374152657091617,-0.376205302464962
2024-10-23 10:47:21.007302,-0.013233794778212904,0.007660743886232376,-0.5008329681307077
2024-10-23 10:47:21.017309,0.07816825843825936,0.036167876446247096,-0.48737259805500505
2024-10-23 10:47:21.027316,0.07630377974063157,0.0617044687628746,-0.2716197233527899
2024-10-23 10:47:21.037323,0.03638670682869851,0.06142039112448692,0.018853753551840782
2024-10-23 10:47:21.047330,-0.0004956745624542236,0.05173310984671116,0.19379940156936645
2024-10-23 10:47:21.057337,0.053199602202698586,0.045965632361173625,0.30380875929594037
2024-10-23 10:47:21.067345,0.1266203007876873,0.016529109996557236,0.3153811236679554
2024-10-23 10:47:21.077352,0.21845146613642571,-0.048238253468275066,0.19105916295051573
2024-10-23 10:47:21.087359,0.2700947057425976,-0.10353051710128784,-0.00047054012119770045
2024-10-23 10:47:21.097366,0.2154850175462663,-0.09122223967015743,-0.12842062820792197
2024-10-23 10:47:21.107373,0.044630072908475996,-0.04811842648088932,-0.05203823027312755
2024-10-23 10:47:21.117380,-0.028451018458604812,-0.031071430090069768,-0.005135609322786331
2024-10-23 10:47:21.127387,-0.09606909517943858,0.006679916155338287,-0.08459142335355281
2024-10-23 10:47:21.137394,-0.12115597096718847,-0.0026198271095752715,-0.24974399163126945
2024-10-23 10:47:21.147401,-0.07353329211398958,-0.027424598020315168,-0.18440905741155147
2024-10-23 10:47:21.157408,0.019325681912526486,0.012321136912703513,-0.07046294475793838
2024-10-23 10:47:21.167415,0.1063028313588351,0.015082418319582938,-0.011979776129126547
2024-10-23 10:47:21.177422,0.08968392418697475,-0.009485036703944206,0.0410913043230772
2024-10-23 10:47:21.187429,0.004341682466119528,0.002011339822411537,0.07860299659371375
2024-10-23 10:47:21.197436,-0.04150404984243214,0.05125321737527847,0.08346914132535457
2024-10-23 10:47:21.207442,0.029775910386815665,0.05098316826224327,0.08134615782201289
2024-10-23 10:47:21.217450,0.1151033929299563,-0.01877542761862278,-0.08021160083413123
2024-10-23 10:47:21.227457,0.0880363031104207,-0.044429508835077285,-0.2140308732151985
2024-10-23 10:47:21.237464,3.119885586202145e-05,-0.007075052952766418,-0.2735042219251394
2024-10-23 10:47:21.247472,-0.04561411550976336,0.021603344520926476,-0.21897534388005732
2024-10-23 10:47:21.257479,-0.024516893880069255,0.0793161132991314,-0.13626783457696437
2024-10-23 10:47:21.267486,-0.06000000293254852,0.05883037463128567,-0.02426350364089012
2024-10-23 10:47:21.277493,-0.02949212500937283,0.06013853462040424,0.1237923838853836
2024-10-23 10:47:21.287500,-0.03319426746293902,0.06541442919671535,0.1842763709425926
2024-10-23 10:47:21.297507,-0.08060396115258335,0.04282558076977729,0.19818156217634678
2024-10-23 10:47:21.307514,-0.010292845955491065,0.001329202777147293,0.12070961543917655
2024-10-23 10:47:21.317521,0.15236403304897247,-0.05599778155386448,0.11818681896328925
2024-10-23 10:47:21.327527,0.20653021526150403,-0.06675649145543575,0.05424480040669441
2024-10-23 10:47:21.337535,0.13482260420471429,-0.06630290246903896,-0.05172960271537304
2024-10-23 10:47:21.347542,0.17677322877086699,-0.0935240868717432,-0.2032639800071716
2024-10-23 10:47:21.357549,0.22183993953093886,-0.14589783270955084,-0.2417676059246063
2024-10-23 10:47:21.367556,0.11042838685624301,-0.06758826610445975,-0.12649755119085312
2024-10-23 10:47:21.377563,-0.0578267505466938,0.008851414975523948,-0.06444353833794593
2024-10-23 10:47:21.387570,-0.0488142997905612,0.04525193113386631,-0.03954056774973869
2024-10-23 10:47:21.397577,-0.00859678262732923,0.04957096337676048,0.04110299476087093
2024-10-23 10:47:21.407584,-0.05167509604915976,0.054527709001302715,0.06767477534413337
2024-10-23 10:47:21.417592,-0.14334610240012408,0.06556231323480606,0.06174304720759392
2024-10-23 10:47:21.427599,-0.1342540836017579,0.1132265662074089,0.03375613912940025
2024-10-23 10:47:21.437606,0.02179229122176766,0.021534370937943456,-0.05787058968842029
2024-10-23 10:47:21.447613,0.13351108321473001,-0.12115268303155899,-0.11354805324673652
2024-10-23 10:47:21.457620,0.2165435136232525,-0.11853987018465995,-0.039079379978775974
2024-10-23 10:47:21.467627,0.13731997397840023,-0.025828268739581106,0.05272971966862678
2024-10-23 10:47:21.477634,-0.0332778540931642,0.04714519753456115,0.14789046783149243
2024-10-23 10:47:21.487641,-0.12905790319815277,0.12394552862048148,0.22066870379447937
2024-10-23 10:47:21.497648,0.03854154677502811,0.07293196521997451,0.10174480272829532
2024-10-23 10:47:21.507655,0.28033567538037896,-0.07871054862141609,-0.08966682692170143
2024-10-23 10:47:21.517662,0.23881021742373704,-0.1148562132358551,-0.14921733252108096
2024-10-23 10:47:21.527669,0.04782748071029782,-0.016167875468730927,-0.0797995129019022
2024-10-23 10:47:21.537676,-0.1853922962952405,0.12747253370285033,-0.0059212067425251005
2024-10-23 10:47:21.547683,-0.3281885097276419,0.1749134993135929,0.028493688556551933
2024-10-23 10:47:21.557690,-0.14250775187984108,0.08105038974583148,-0.12053192078471182
2024-10-23 10:47:21.567697,0.07528064723797143,-0.03791325880885124,-0.21458733805418012
2024-10-23 10:47:21.577704,0.06205474350526929,-0.08245967202186584,-0.20678397082686423
2024-10-23 10:47:21.587711,-0.05444909080713987,0.007242810735106468,-0.18233108209371565
2024-10-23 10:47:21.597719,-0.2222830801885575,0.10295651660561561,-0.06696224316060542
2024-10-23 10:47:21.607726,-0.211236639386788,0.14958441226780414,0.08192191188335418
2024-10-23 10:47:21.617733,-0.030263401642814276,0.08671089972555637,0.14985679946839808
2024-10-23 10:47:21.627740,0.10680435114018619,-0.015417933884263038,0.10462883373200893
2024-10-23 10:47:21.637747,0.14875607168488203,-0.07629296608567238,-0.015053776746988295
2024-10-23 10:47:21.647754,0.06843881851918995,-0.062246320554614064,-0.10167699818909168
2024-10-23 10:47:21.657761,0.006447787899896502,0.005979074409604072,-0.0591816722869873
2024-10-23 10:47:21.667768,-0.008941431346535682,0.016496961292624474,0.04531622854173183
2024-10-23 10:47:21.677775,0.010862827863171696,0.020752865171432495,0.1597773049801588
2024-10-23 10:47:21.687782,0.013610519136115908,0.005018120422959327,0.1801151596099138
2024-10-23 10:47:21.697789,-0.029209143349528312,0.008700023806095122,0.05510170949697494
2024-10-23 10:47:21.707796,-0.010371902541071176,0.022435119169950484,-0.05781564463078975
2024-10-23 10:47:21.717803,0.08815583783686161,0.00165828860104084,-0.1285626670271158
2024-10-23 10:47:21.727810,0.17549005709253251,-0.05867781441807746,-0.16081307776868342
2024-10-23 10:47:21.737817,0.11296221618279814,-0.07514438057243823,-0.11255261246860027
2024-10-23 10:47:21.747824,-0.002437456279993057,-0.0035831191837787627,-0.007559621599316596
2024-10-23 10:47:21.757831,-0.056271849254891274,0.06284896262288094,0.10735212121605872
2024-10-23 10:47:21.767839,-0.011816036934778094,0.054691959652304646,0.1399479843944311
2024-10-23 10:47:21.777846,0.047400925861299036,-0.007224690556526183,0.060466451400518414
2024-10-23 10:47:21.787853,0.0711712391577661,-0.03572071720063686,-0.028217794224619865
2024-10-23 10:47:21.797860,0.05793576387912035,-0.03895604586005211,-0.11867372569739817
2024-10-23 10:47:21.807867,-0.00871492911428213,-0.015283493849635123,-0.06125847856104374
2024-10-23 10:47:21.817874,-0.11759820542037486,0.0500233833193779,0.004463409149646759
2024-10-23 10:47:21.827881,-0.11378712269961833,0.06812427267730235,0.062968205088377
2024-10-23 10:47:21.837888,-0.053483825971558686,0.08261106319129466,0.08085457491278648
2024-10-23 10:47:21.847895,0.001338262866437435,0.01001987423300743,0.0627151071101427
2024-10-23 10:47:21.857902,0.009678221188485622,-0.031306407889723775,-0.03853402105569839
2024-10-23 10:47:21.867909,-0.02514496265053749,-0.03731529291570186,-0.13775076661109922
2024-10-23 10:47:21.877916,-0.07665047428645193,-0.028193828827142713,-0.15891747328042982
2024-10-23 10:47:21.887923,-0.047730961533263325,0.004819382980465889,-0.16814824296236036
2024-10-23 10:47:21.897930,0.15313019511587916,-0.029893033960461616,-0.12052782913148402
2024-10-23 10:47:21.907937,0.18882351285293697,-0.0849801304101944,0.006131634622812271
2024-10-23 10:47:21.917944,0.06989369350261986,-0.03890402341187,0.11248831506073474
2024-10-23 10:47:21.927951,-0.03087619977891445,0.040844051563739776,0.10173077420294284
2024-10-23 10:47:21.937959,-0.10350750155188143,0.09119944331645966,0.1390682789504528
2024-10-23 10:47:21.947966,-0.11378639204725623,0.09791735339462757,0.11637597014904022
2024-10-23 10:47:21.957973,-0.030844124140217897,0.044748657786846155,0.019967267751693725
2024-10-23 10:47:21.967980,0.025697335836291312,0.0035042087286710735,-0.03999415673613548
2024-10-23 10:47:21.977987,0.053065527494251724,-0.0015431377887725828,-0.09735328977108001
2024-10-23 10:47:21.987994,0.06808094499222934,-0.015371756654977798,-0.17236673744022846
2024-10-23 10:47:21.998001,0.11453881784975528,-0.02630699216723442,-0.16133447129428385
2024-10-23 10:47:22.008008,0.07260982059352099,-0.0371264923453331,-0.09918050519824027
2024-10-23 10:47:22.018015,0.008514218910411,-0.012415244936943053,-0.04476327083408832
2024-10-23 10:47:22.028022,0.027181583044677972,0.02709551219642162,0.05046411282420158
2024-10-23 10:47:22.038029,-0.01831197482533753,0.03286591229140758,0.0838560948163271
2024-10-23 10:47:22.048036,-0.02336772384494543,0.03668985449373722,0.07218377720117569
2024-10-23 10:47:22.058043,-0.06017170623764395,0.05711480288505554,0.01959668087363243
2024-10-23 10:47:22.068050,-0.03163184045180678,0.05967968493700027,-0.07847557082176208
2024-10-23 10:47:22.078057,0.14212467084638775,-0.04532733445763588,-0.15345219361186027
2024-10-23 10:47:22.088064,0.19608926607221364,-0.09931786784231662,-0.06698679307997227
2024-10-23 10:47:22.098071,0.13313063252978027,-0.06894084975719451,0.04686988772451877
2024-10-23 10:47:22.108079,0.010059987047687173,-0.0032569559693336487,0.170631291949749
2024-10-23 10:47:22.118086,-0.051330228134244676,0.09438625665903091,0.18938918391168116
2024-10-23 10:47:22.128093,-0.14132811364121733,0.09313888694643974,0.13232640347480773
2024-10-23 10:47:22.138100,-0.05918510635308921,0.03895546133816242,-0.014706570744514464
2024-10-23 10:47:22.148107,0.13156031447313726,-0.11379939765930175,-0.17129472429454326
2024-10-23 10:47:22.158114,0.14489004390649496,-0.11871230414211749,-0.12598551001548766
2024-10-23 10:47:22.168121,0.05241378558725118,-0.05376081628203392,-0.03723638246059417
2024-10-23 10:47:22.178128,-0.07361673261374235,0.03691664898693561,0.05745733271241188
2024-10-23 10:47:22.188135,-0.2062942876137793,0.11773965971767901,0.13886194272339344
2024-10-23 10:47:22.198142,-0.23467903590314088,0.13202771278917788,0.13938859694600103
2024-10-23 10:47:22.208149,-0.013552359208092092,0.03128828771114349,0.03983282869458198
2024-10-23 10:47:22.218156,0.2951858923792839,-0.16085983951985836,-0.1237269174337387
2024-10-23 10:47:22.228163,0.38098661845736204,-0.19890929192900655,-0.21504384965002535
2024-10-23 10:47:22.238170,0.14257497189715504,-0.14017770149707792,-0.2773772639662027
2024-10-23 10:47:22.248177,-0.14188764722011982,0.05263210451304912,-0.0909445917725563
2024-10-23 10:47:22.258184,-0.2131897462159395,0.1808089870929718,0.08134732686579227
2024-10-23 10:47:22.268191,-0.11918138295859097,0.12489596121311188,0.19538520945608615
2024-10-23 10:47:22.278199,-0.0152833477191627,0.05184533804953098,0.2184568729639053
2024-10-23 10:47:22.288206,0.01700096529200673,-0.005023965641856193,0.07482406257688999
2024-10-23 10:47:22.298213,-0.005030103121697903,-0.015184125128388404,-0.029803602111339568
2024-10-23 10:47:22.308220,0.015405220533162355,-0.01160802020728588,-0.03685235157907009
2024-10-23 10:47:22.318227,0.08467486385330557,-0.03432955510318279,0.07267711367607116
2024-10-23 10:47:22.328234,0.13180690964534877,-0.046884500771760936,0.13348609490394592
2024-10-23 10:47:22.338241,0.13715586945787073,-0.07498129896521567,0.04158054914474487
2024-10-23 10:47:22.348248,0.07975392019450664,-0.05940788225829601,-0.03372282138168812
2024-10-23 10:47:22.358254,-0.007372976453416049,-0.014855039304494857,-0.10558744963109493
2024-10-23 10:47:22.368262,-0.008041194571182131,0.023850831186771393,-0.047345688542723655
2024-10-23 10:47:22.378268,0.018245412395149468,0.029741058269143104,0.010980243697762489
2024-10-23 10:47:22.388276,0.06818696264997125,0.008153495839238167,0.03754734810590744
2024-10-23 10:47:22.398283,0.033032208769023415,0.0242687643378973,0.0053594812065362925
2024-10-23 10:47:22.408289,-0.07538995283134281,0.03807926302552223,-0.06110650286972522
2024-10-23 10:47:22.418297,-0.08335483076330275,0.07552139719128609,-0.11863573177456856
2024-10-23 10:47:22.428303,-0.027093831695988772,0.04520224677324295,-0.17426234192848206
2024-10-23 10:47:22.438312,-0.011619454916752875,0.040430210065841674,-0.1354565181940794
2024-10-23 10:47:22.448318,-0.0737237731847912,0.07686229040622711,-0.11306290007829665
2024-10-23 10:47:22.458325,-0.12223872470259665,0.0782353323251009,-0.06502922927141189
2024-10-23 10:47:22.468333,-0.12021098173465579,0.08446925827860832,-0.013418284499645232
2024-10-23 10:47:22.478339,-0.07070807862542569,0.04789513911902904,0.006310498321056366
2024-10-23 10:47:22.488347,-0.03631466450579464,0.0028945523977279663,-0.02844926489293575
2024-10-23 10:47:22.498353,-0.024804807443358,0.00785012897849083,-0.03562193300127983
2024-10-23 10:47:22.508361,-0.08823200834561139,0.03763093473613262,-0.026572365105152127
2024-10-23 10:47:22.518368,-0.14616561680026352,0.07109715100824833,-0.02262216617465019
2024-10-23 10:47:22.528374,-0.11937084111608565,0.07393968095779418,0.003701777127385139
2024-10-23 10:47:22.538382,0.0976279785266146,0.002439209845662117,0.027626842594146727
2024-10-23 10:47:22.548388,0.3180606450755149,-0.1262321782529354,-0.030019875210523603
2024-10-23 10:47:22.558396,0.32516974642835555,-0.20471885499060152,-0.15702128427028655
2024-10-23 10:47:22.568402,0.12130104199368506,-0.10072831916213035,-0.1333078157275915
2024-10-23 10:47:22.578409,-0.09498871606420725,0.04468026872575283,-0.003381459131836891
2024-10-23 10:47:22.588417,-0.1355065313482657,0.10441256063282489,0.1280968030810356
2024-10-23 10:47:22.598423,-0.013505341728590428,0.03428630048334598,0.21018471918106077
2024-10-23 10:47:22.608432,0.09650646368339658,-0.029082886621356007,0.17898527879714965
2024-10-23 10:47:22.618438,0.08258191016204655,-0.0678916329652071,0.0329436537027359
2024-10-23 10:47:22.628446,-0.011533603264205158,-0.031629648494720455,-0.06334171457588672
2024-10-23 10:47:22.638453,-0.0652332274109125,0.040191725134849546,-0.03912789529561996
2024-10-23 10:47:22.648459,-0.08784585857223719,0.0801917270898819,6.254384219646453e-05
2024-10-23 10:47:22.658467,-0.12519395777899772,0.07178337970674037,-0.041679333344101906
2024-10-23 10:47:22.668473,-0.09740684658922255,0.07256137834191322,-0.08814356287717819
2024-10-23 10:47:22.678481,-0.052716567926108834,0.05522679718136787,-0.10699439381957053
2024-10-23 10:47:22.688487,-0.024388079868629575,0.017427520141005515,-0.140110481479764
2024-10-23 10:47:22.698494,0.007049443587474525,0.020030396115779874,-0.10786416239142417
2024-10-23 10:47:22.708502,0.0018241466872394084,0.017797522497177122,-0.054984805119037625
2024-10-23 10:47:22.718508,0.02662307237908244,-0.004592003965377807,-0.0008680150061845779
2024-10-23 10:47:22.728516,0.03999799266103655,-0.00722702864408493,0.10076397499740124
2024-10-23 10:47:22.738523,0.09793700794316827,-0.012331658306717872,0.1399006381213665
2024-10-23 10:47:22.748529,0.11799100413024424,-0.07688391771614551,0.15923603771030903
2024-10-23 10:47:22.758538,0.08396134528908879,-0.08276303888261317,0.1315308691829443
2024-10-23 10:47:22.768544,0.05128394130710512,-0.026764088284969328,0.0742044693738222
2024-10-23 10:47:22.778552,0.05480955814998596,-0.018009703943133355,-0.013833295041322708
2024-10-23 10:47:22.788558,0.10097316076867281,-0.02863280476629734,-0.030220950740575788
2024-10-23 10:47:22.798566,0.09868775324523449,-0.06348842957019805,-0.04747136074900627
2024-10-23 10:47:22.808572,0.02567537973280996,-0.01615852311849594,-0.06992284653186798
2024-10-23 10:47:22.818579,-0.05426876580417156,0.025559973192214966,-0.06825637462437152
2024-10-23 10:47:22.828587,-0.08385324527211487,0.02791208927631378,-0.04433364724516868
2024-10-23 10:47:22.838593,-0.05419847704693675,0.05273030419051647,-0.027597616499662397
2024-10-23 10:47:22.848601,-0.056732744764909145,0.061818450531363485,-0.051392918106913564
2024-10-23 10:47:22.858608,-0.04718560261018574,0.036676995012164114,-0.09328034124374389
2024-10-23 10:47:22.868614,-0.021553367899358272,0.042132922330498694,-0.08070785991847515
2024-10-23 10:47:22.878622,-0.06949187123607843,0.042867081823945045,-0.06176818164885044
2024-10-23 10:47:22.888628,-0.14442454528659582,0.06713526163995266,-0.01871522186398506
2024-10-23 10:47:22.898635,-0.02054579829201102,0.03677694825530052,-0.0686368983745575
2024-10-23 10:47:22.908643,0.21491733719352632,-0.10991115804910659,-0.1448059458196163
2024-10-23 10:47:22.918649,0.2353859055308625,-0.1600432624399662,-0.1320750590622425
2024-10-23 10:47:22.928657,0.12959599213022738,-0.09010288025140761,-0.10116963318884373
2024-10-23 10:47:22.938664,-0.05397577420696616,0.018618775752186775,0.019123218142986297
2024-10-23 10:47:22.948672,-0.1566888009129092,0.12535714898407457,0.16943536016345023
2024-10-23 10:47:22.958678,-0.1726708349533379,0.15461714573800564,0.22076047373116015
2024-10-23 10:47:22.968686,-0.0657522828489542,0.11083061098158359,0.18463234477341173
2024-10-23 10:47:22.978693,0.10093783372696488,-0.011822539740800856,0.04225625644922256
2024-10-23 10:47:22.988699,0.10849796678293495,-0.08672492825090884,-0.044588498789072034
2024-10-23 10:47:22.998707,0.0696489249613136,-0.03774199389517307,-0.07052548860013484
2024-10-23 10:47:23.008713,-0.04577379958350211,0.024195699101686476,-0.03375438556373119
2024-10-23 10:47:23.018720,-0.13414192846417428,0.08622457751333713,0.08742576999664306
2024-10-23 10:47:23.028728,-0.08466715547088532,0.0784486828148365,0.13933189832270146
2024-10-23 10:47:23.038734,0.10220489452071488,-0.032602877441048624,-0.023266309297084807
2024-10-23 10:47:23.048742,0.24689262078814206,-0.136589321616292,-0.18806231922209263
2024-10-23 10:47:23.058748,0.2146019876340404,-0.13743161765933035,-0.3131581869214773
2024-10-23 10:47:23.068756,0.0388014032876119,-0.06948503963649273,-0.24108137722611425
2024-10-23 10:47:23.078763,-0.12830986130982636,0.09360475089251995,0.002360299390554428
2024-10-23 10:47:23.088771,-0.2418944471746683,0.19506664502620696,0.1766173806220293
2024-10-23 10:47:23.098778,-0.25285708215050395,0.17124153280258178,0.2056663649737835
2024-10-23 10:47:23.108784,-0.14094579979274421,0.0977022493392229,0.11951309913098812
2024-10-23 10:47:23.118792,-0.02872746077980846,-0.0029909985095262527,-0.014449965634942054
2024-10-23 10:47:23.128798,-0.002288403198122978,-0.04029050933420658,-0.10751344925761222
2024-10-23 10:47:23.138805,0.03587941489368677,-0.03593172960281372,-0.11412030017673969
2024-10-23 10:47:23.148813,0.07936302118077873,-0.02442775429189205,0.014181085565686225
2024-10-23 10:47:23.158819,0.0729183385534212,-0.050321489483118056,0.14275719659626482
2024-10-23 10:47:23.168827,0.09871661401353776,-0.062410571205615994,0.1953781951934099
2024-10-23 10:47:23.178833,0.15767014010045677,-0.09810615396499633,0.1035802014619112
2024-10-23 10:47:23.188841,0.07866440792474895,-0.12293956644833087,-0.004166472029685974
2024-10-23 10:47:23.198848,0.025802549776434897,-0.06706628805696964,-0.013598901763558387
2024-10-23 10:47:23.208854,0.013966675630025564,-0.008734510597586632,0.030759879922866818
2024-10-23 10:47:23.218862,-0.006597279373183846,0.007166238367557525,0.06767828247547149
2024-10-23 10:47:23.228869,0.006715462392754852,0.020917115822434423,0.04944003047347068
2024-10-23 10:47:23.238877,0.04456555630490184,0.003989946419000625,0.011651274827122688
2024-10-23 10:47:23.248883,0.042139717397466296,0.002983399724960327,-0.07580781291723251
2024-10-23 10:47:23.258891,0.0024667189070954917,0.0014344167172908782,-0.10158581277430057
2024-10-23 10:47:23.268898,-0.01535509778112173,0.0044160628765821455,-0.09767477681040763
2024-10-23 10:47:23.278904,-0.008301891333982347,0.054091655671596524,-0.06343757616579532
2024-10-23 10:47:23.288912,-0.025107443651743232,0.03969312796294689,-0.08045242385268211
2024-10-23 10:47:23.298918,-0.010577398517914116,0.02192073990702629,-0.11856208201646803
2024-10-23 10:47:23.308926,0.006157170922867953,0.029968437284231184,-0.10613163951039313
2024-10-23 10:47:23.318933,-0.025372524328716096,0.02891162170767784,-0.08253799795508385
2024-10-23 10:47:23.328939,-0.056354559102281924,0.0414788423359394,-0.05829612162411212
2024-10-23 10:47:23.338947,-0.0524976279458031,0.04885141693055629,-0.049744566377997394
2024-10-23 10:47:23.348953,-0.047185712208040055,0.03169628399014473,-0.023653262788057326
2024-10-23 10:47:23.358961,-0.05899184880331158,0.029547581523656843,0.013069909453392028
2024-10-23 10:47:23.368968,-0.05818809467237442,0.021955226698517797,0.04158113366663456
2024-10-23 10:47:23.378976,0.07770531710162758,-0.009415478599071502,0.04198679185807705
2024-10-23 10:47:23.388983,0.13913334354329854,-0.07310030752420425,0.009660977792739868
2024-10-23 10:47:23.398990,0.11739552245512604,-0.09383154538571833,-0.06086217271983623
2024-10-23 10:47:23.408997,0.03157419198043644,-0.03368833459019661,-0.0657300710171461
2024-10-23 10:47:23.419004,-0.04271006463132798,0.02843582088947296,0.0023398411244153973
2024-10-23 10:47:23.429011,-0.052071730683930215,0.05930325284004211,0.09740355865359306
2024-10-23 10:47:23.439018,0.0452788922060281,0.011287117689847945,0.1025391679763794
2024-10-23 10:47:23.449025,0.08182692707628011,-0.023968904608488082,0.008013210585713386
2024-10-23 10:47:23.459032,-0.023702216496318578,-0.02532265730500221,-0.11251111141443251
2024-10-23 10:47:23.469039,-0.09744988201335072,0.030191724646091458,-0.14231179091632365
2024-10-23 10:47:23.479046,-0.19426880917940287,0.09686872112452984,-0.08037702052891255
2024-10-23 10:47:23.489053,-0.1664525084277615,0.11065876154601573,-0.01447451555430889
2024-10-23 10:47:23.499060,-0.028557255312055347,0.05279460159838199,-0.054340077474713325
2024-10-23 10:47:23.509067,0.11589604114498943,-0.05718494551181793,-0.10302958184182644
2024-10-23 10:47:23.519074,0.1227123335637152,-0.09736731829643248,-0.08715221375226974
2024-10-23 10:47:23.529081,0.040990803090669214,-0.050880292409658426,0.012194295662641524
2024-10-23 10:47:23.539089,-0.0010635741109028458,0.016634908458590506,0.1203501344770193
2024-10-23 10:47:23.549096,0.028906653271615502,0.010334347009658813,0.176041626560688
2024-10-23 10:47:23.559103,0.04607530328072607,-0.00904781433045864,0.181636670088768
2024-10-23 10:47:23.569110,0.07342888189144432,-0.03436579546034336,0.10259002138078212
2024-10-23 10:47:23.579117,0.05496818277779966,-0.03575228138267994,-0.012026537880301474
2024-10-23 10:47:23.589124,-0.0045654812846332785,-0.039463410860300065,-0.08659224178194999
2024-10-23 10:47:23.599131,-0.038956009327434,0.01251519818007946,-0.12797697609364986
2024-10-23 10:47:23.609138,-0.05030453834831714,0.053766076979041094,-0.10533259808719157
2024-10-23 10:47:23.619145,-0.048068449859321113,0.056575873702764505,-0.07670856114923953
2024-10-23 10:47:23.629152,-0.09865081876832991,0.07157996608912945,-0.041949382457137106
2024-10-23 10:47:23.639159,-0.12271668094526976,0.04662380400896072,-0.02705634922981262
2024-10-23 10:47:23.649166,-0.14445848408881573,0.04843582186698913,-0.004318447721004486
2024-10-23 10:47:23.659173,-0.013494856867194175,0.02131985140442848,-0.04394786279797554
2024-10-23 10:47:23.669180,0.12030644146576523,-0.06614975773394108,-0.09862111774981021
2024-10-23 10:47:23.679188,0.1254004766691476,-0.12385258964002131,-0.10593991633057594
2024-10-23 10:47:23.689195,0.06780516025815159,-0.07734802809655666,-0.021519173368811605
2024-10-23 10:47:23.699202,0.013586115347221492,-0.003381459131836891,0.13396423380970954
2024-10-23 10:47:23.709209,-0.032102782431803645,0.008990531185269355,0.24688041889369486
2024-10-23 10:47:23.719216,-0.03954897025190294,-0.010520224970579146,0.23096096522808074
2024-10-23 10:47:23.729223,0.038651619553379715,-0.0906575915247202,0.09898235227763652
2024-10-23 10:47:23.739230,0.07399002290554345,-0.09570902969539165,-0.05153554144799709
2024-10-23 10:47:23.749237,-0.0026833938650786876,-0.06959843688309192,-0.15271744959652422
2024-10-23 10:47:23.759244,-0.05452748980559408,-0.040375265008211134,-0.11057459039390087
2024-10-23 10:47:23.769251,-0.0421012120179832,0.032334581893682476,-0.0051198272317647935
2024-10-23 10:47:23.779258,-0.005855740290880203,0.05743278279304504,0.08035305513143538
2024-10-23 10:47:23.789265,0.002527984107658267,0.08385258768498897,0.1071703349083662
2024-10-23 10:47:23.799272,0.02059230431485921,0.11237199520468712,0.009081716600060463
2024-10-23 10:47:23.809279,0.026974370034784076,0.08150222516655921,-0.08381342471837996
2024-10-23 10:47:23.819286,0.05154935077764094,0.07983224612772465,-0.15263386296629905
2024-10-23 10:47:23.829294,0.11503858406543731,0.05981295592784881,-0.180541860589385
2024-10-23 10:47:23.839301,0.06346493909675628,0.030014029991626737,-0.12368249377012253
2024-10-23 10:47:23.849308,0.026847090393304823,0.018218962779641152,-0.013018471527099609
2024-10-23 10:47:23.859315,0.037936310890875756,-0.0009416647642850875,0.12014672085940838
2024-10-23 10:47:23.869322,0.0014209727138280869,-0.034411972689628596,0.12950491631329059
2024-10-23 10:47:23.879329,-0.041021088631078596,-0.06242459973096847,0.09486030391156673
2024-10-23 10:47:23.889336,-0.10700133501701056,-0.038000937092304225,0.005133855757117271
2024-10-23 10:47:23.899343,-0.13698639464247972,-0.01681026502549648,-0.04150456129908561
2024-10-23 10:47:23.909350,-0.08863759347181767,0.0103261637032032,-0.06742459997534751
2024-10-23 10:47:23.919357,-0.04842358343992382,0.026237434062361717,-0.07801379852890968
2024-10-23 10:47:23.929364,0.003753251586295664,0.022731471768021583,-0.05630290198028087
2024-10-23 10:47:23.939371,0.03610219079889357,0.02886485995650291,-0.0441758263349533
2024-10-23 10:47:23.949378,0.07413911252003162,-0.01341185475885868,-0.0699953272461891
2024-10-23 10:47:23.959385,0.09827617676965891,-0.026197102051973342,-0.0157376673579216
2024-10-23 10:47:23.969392,0.08605203395802527,-0.03420388289690018,-0.006465396621823311
2024-10-23 10:47:23.979400,-0.02082161955870688,0.009198036456108092,0.002797521764039993
2024-10-23 10:47:23.989407,-0.07257442048657685,0.04292611853480339,0.06701017395555972
2024-10-23 10:47:23.999414,-0.024720709356479346,0.0402677129805088,0.09684475572705269
2024-10-23 10:47:24.009421,0.010164579933322966,-0.019002222111821173,0.036543724021315574
2024-10-23 10:47:24.019428,0.04313501204513013,-0.042680619341135026,-0.07299743167161941
2024-10-23 10:47:24.029435,0.024840645941719412,-0.01860065557360649,-0.09596446576118468
2024-10-23 10:47:24.039442,-0.03231036076787859,0.015315642553567885,-0.05268120435178279
2024-10-23 10:47:24.049449,-0.0730681953528896,0.039376901620626445,0.021019407153129575
2024-10-23 10:47:24.059456,-0.03209887344166636,0.05127133755385875,0.09629998132586479
2024-10-23 10:47:24.069463,-0.004708798745460808,0.013576689931750296,0.0711895054668188
2024-10-23 10:47:24.079470,0.008414229134656488,-0.018676058897376058,0.01722936722040176
2024-10-23 10:47:24.089477,0.0050397842654958365,-0.036515666970610615,-0.03633972588181496
2024-10-23 10:47:24.099484,0.00649948155451566,-0.033058804515004155,-0.035108722782135005
2024-10-23 10:47:24.109491,-0.027520642273314296,-0.02681026551425457,0.03245616244673729
2024-10-23 10:47:24.119499,-0.03645944327134639,-0.007242226213216781,0.06474748972058296
2024-10-23 10:47:24.129506,0.016603965331055223,-0.01326630880832672,0.10637889226973056
2024-10-23 10:47:24.139513,0.022121157849952576,-0.040380525705218315,0.0625929420351982
2024-10-23 10:47:24.149520,0.08101159210540354,-0.0479056605130434,-0.03240706260800361
2024-10-23 10:47:24.159527,0.06207165810745209,-0.0536702153891325,-0.12121814948320388
2024-10-23 10:47:24.169534,0.04033281410597264,-0.019143676409125326,-0.17753566451072691
2024-10-23 10:47:24.179541,-0.006897504428774118,0.016513912427425382,-0.11535013423264026
2024-10-23 10:47:24.189548,-0.06925378816388547,0.06271919876337051,-0.007104279047250747
2024-10-23 10:47:24.199555,-0.08364026010856032,0.09638298343420028,0.09021452393233775
2024-10-23 10:47:24.209562,-0.04497344298604875,0.07158873391747474,0.0974187562227249
2024-10-23 10:47:24.219569,0.011144896207563579,0.028069910186529157,0.04162497280836105
2024-10-23 10:47:24.229576,0.05776694665085524,-0.005448328533768654,-0.012274375161528586
2024-10-23 10:47:24.239583,0.024074630005285143,-0.013559738796949385,-0.05229015920758247
2024-10-23 10:47:24.249590,0.019792276510968803,-0.014826397731900214,-0.053038931748270984
2024-10-23 10:47:24.259598,0.02037741945516318,0.018355740901827813,0.020191139635443688
2024-10-23 10:47:24.269605,-0.02660444074384868,0.007564297774434089,0.048397243422269816
2024-10-23 10:47:24.279612,-0.011613901958800852,-0.012318798825144767,0.0029699557214975356
2024-10-23 10:47:24.289619,0.03820920954812318,-0.02984627220928669,0.008007949888706206
2024-10-23 10:47:24.299626,0.04248590048663318,-0.035112814435362814,-0.014634674552083015
2024-10-23 10:47:24.309633,0.02283000023905188,-0.02055821938216686,-0.07717500961720943
2024-10-23 10:47:24.319640,-0.02527490917313844,0.013571429234743117,-0.07165887654423714
2024-10-23 10:47:24.329647,-0.08403353374246507,0.05092646963894367,-0.06072773268520832
2024-10-23 10:47:24.339654,-0.06604991408865898,0.05267828174233436,-0.003443418452143669
2024-10-23 10:47:24.349661,-0.025727036854811012,0.046799160575866694,0.046457215270400046
2024-10-23 10:47:24.359668,0.06999269689768553,0.014697218394279479,0.04765957679748535
2024-10-23 10:47:24.369675,0.11415109717380255,-0.0442892235815525,0.05272621253728866
2024-10-23 10:47:24.379682,0.09052066727206111,-0.05787058968842029,0.08114858942329883
2024-10-23 10:47:24.389689,0.04613203843664378,-0.004529460123181343,0.08697159648835659
2024-10-23 10:47:24.399697,-0.010368578072823584,0.008767828345298767,0.1386503457993269
2024-10-23 10:47:24.409704,-0.04949556005299091,-0.015789105284214018,0.13419862708747385
2024-10-23 10:47:24.419711,-0.052959254108183085,-0.036301731958985325,-0.0234539408236742
2024-10-23 10:47:24.429718,-0.014266827620379625,-0.011453706428408622,-0.10845043784677982
2024-10-23 10:47:24.439725,0.04281856650710106,-0.04803659341633319,-0.09295476255118847
2024-10-23 10:47:24.449732,0.04936809774842113,-0.09323533305823803,0.01976443865597248
2024-10-23 10:47:24.459739,0.2407738456469029,-0.2241653137385845,0.25333295603394507
2024-10-23 10:47:24.469746,0.6546275454394519,-0.6190577810168266,0.6754933694660663
2024-10-23 10:47:24.479753,0.8526703567322343,-1.058590477271378,0.5614402893066406
2024-10-23 10:47:24.489760,2.0721528952926396,-1.6789768765434623,-1.5132131906300783
2024-10-23 10:47:24.499767,3.0095392516061663,-2.306156589217484,-5.878375901058316
2024-10-23 10:47:24.509774,3.5882203063100575,-1.5213248931542038,-12.826992677432298
2024-10-23 10:47:24.519781,3.2587124576121567,-0.8046005186334252,-20.271602580690384
2024-10-23 10:47:24.529788,1.5952023225307463,-0.04775660743117332,-27.985470154345034
2024-10-23 10:47:24.539797,0.060435289077274496,0.9413573057711124,-32.82340819767713
2024-10-23 10:47:24.549803,0.5390038549624383,2.6264962120756503,-29.233611435830593
2024-10-23 10:47:24.559810,1.5759673145763575,4.349878632056713,-21.127391727030275
2024-10-23 10:47:24.569817,1.797276508231461,3.8881741437435147,-14.268829315590857
2024-10-23 10:47:24.579824,2.3478043583795425,3.3261738824665543,-8.68708658311069
2024-10-23 10:47:24.589831,2.552805537442863,3.112010322782397,-5.270304793480038
2024-10-23 10:47:24.599838,2.3287612197354433,3.3739982944369316,-3.2798844249784946
2024-10-23 10:47:24.609845,2.371606235858053,4.596526411238313,-0.8747919529736041
2024-10-23 10:47:24.619852,2.6351830841392276,5.837482165133952,2.825457818713784
2024-10-23 10:47:24.629859,3.3947836005732417,6.464484767675399,6.191599554431438
2024-10-23 10:47:24.639866,3.527074640473723,6.674022421124577,9.098199532827735
2024-10-23 10:47:24.649873,3.0684549664333463,7.593661816084384,12.834139042055606
2024-10-23 10:47:24.659880,2.7718258895084262,8.40642021447122,15.36095469045639
2024-10-23 10:47:24.669887,1.7290949524089694,8.915772004622221,15.848396846616268
2024-10-23 10:47:24.679895,-0.1538108708564192,9.806104056555032,15.297515360724924
2024-10-23 10:47:24.689902,-1.7056798822909593,10.177007745480537,14.515172558867931
2024-10-23 10:47:24.699909,-3.0057343063652513,10.740209783762692,13.798798897480964
2024-10-23 10:47:24.709916,-4.5091900730907915,11.369652180671691,13.885324503767489
2024-10-23 10:47:24.719923,-5.695469064903259,11.534311996996403,14.433047233366965
2024-10-23 10:47:24.729930,-6.485575486499071,11.673804638838767,14.795681106597184
2024-10-23 10:47:24.739937,-7.068044535309076,11.61270105857849,14.801480732786654
2024-10-23 10:47:24.749944,-7.322800802144408,11.39225681118965,14.37777951965332
2024-10-23 10:47:24.759951,-6.661052464914322,10.973714588254689,13.562221845936774
2024-10-23 10:47:24.769958,-4.959997319814563,10.168013122642039,11.822837846964598
2024-10-23 10:47:24.779965,-3.621683015450835,8.979548603484034,10.000895976293087
2024-10-23 10:47:24.789972,-3.2692481724128126,7.9723904995471235,8.554721016669273
2024-10-23 10:47:24.799979,-3.164950178070366,6.997996601092815,7.526961438730359
2024-10-23 10:47:24.809987,-2.577162272325158,5.814698670917749,6.2790586421757935
2024-10-23 10:47:24.819994,-0.7855406480502337,4.3225516491919755,4.672363450250029
2024-10-23 10:47:24.830001,2.3428175098776816,2.018755067104101,2.4397511129319667
2024-10-23 10:47:24.840008,5.5925943813622,-1.1447545567691326,-0.13495441389083862
2024-10-23 10:47:24.850015,9.129445150440931,-4.0662732873559,-3.289823635190725
2024-10-23 10:47:24.860022,10.769054769974947,-6.433821333864331,-8.328580603465438
2024-10-23 10:47:24.870029,9.527855270451306,-7.627921228560805,-15.13860840883851
2024-10-23 10:47:24.880036,6.020924423339963,-7.565856109791993,-20.904653815746308
2024-10-23 10:47:24.890043,2.411564590628445,-6.901479762145876,-24.031897363495826
2024-10-23 10:47:24.900050,1.2221855869740248,-6.505711681076884,-25.36294255363941
2024-10-23 10:47:24.910057,2.0485225749887523,-6.843833628863096,-25.385109961783886
2024-10-23 10:47:24.920064,3.9315374846518036,-7.040435812893509,-23.86977904834747
2024-10-23 10:47:24.930071,5.56016159979105,-6.809930190217495,-20.918974602043626
2024-10-23 10:47:24.940079,5.798018169751763,-5.914951189261674,-16.40334543581605
2024-10-23 10:47:24.950086,4.751818095237017,-4.45171345115602,-11.042149242055416
2024-10-23 10:47:24.960093,3.4882337454259393,-2.8449831879168745,-6.693256113904714
2024-10-23 10:47:24.970100,2.446855976501107,-1.2273130129903553,-3.9195588775664567
2024-10-23 10:47:24.980107,1.3015534304603933,0.18182488613724707,-1.724434851643443
2024-10-23 10:47:24.990114,0.4658133118715137,1.3279039695084094,0.41431379158496856
2024-10-23 10:47:25.000121,-0.17778116370439528,2.5355028127253054,2.6536300104558466
2024-10-23 10:47:25.010128,-0.403015385316126,3.6218186245292423,4.7838574935764075
2024-10-23 10:47:25.020135,-0.4373155681943521,4.479117006388306,6.108362468296289
2024-10-23 10:47:25.030142,-0.47485078747104853,4.918868021568656,7.090685990706086
2024-10-23 10:47:25.040149,-0.36580209147017445,5.307578585341572,7.579788189032674
2024-10-23 10:47:25.050156,-0.36529637043774127,5.810939610645175,7.687835306775569
2024-10-23 10:47:25.060163,-0.5473894790571182,6.197692026087641,7.9772893775045866
2024-10-23 10:47:25.070170,-1.0610732339978217,6.740490743288397,8.647894974929093
2024-10-23 10:47:25.080178,-1.774171965367347,7.234319385614991,9.41540845644474
2024-10-23 10:47:25.090185,-2.4303031933680175,7.906974316784739,10.27647934257984
2024-10-23 10:47:25.100192,-3.196636817449331,8.566304486957192,11.538296098196506
2024-10-23 10:47:25.110199,-3.9318285765528675,8.88912189810574,12.487386628568172
2024-10-23 10:47:25.120206,-4.357736067558824,9.041519029706716,12.952591233956813
2024-10-23 10:47:25.130213,-4.680091706414521,9.05781140833795,13.116701599705218
2024-10-23 10:47:25.140220,-4.623325278575718,9.036262424352765,12.934174118256568
2024-10-23 10:47:25.150227,-4.184700637076795,8.870690753880142,12.619568070614337
2024-10-23 10:47:25.160234,-3.684818978321552,8.239436923635006,12.203818693268298
2024-10-23 10:47:25.170241,-2.793623879818618,7.334904496914148,11.116438467103242
2024-10-23 10:47:25.180248,-1.084453378932923,5.912918222129345,9.138084383970499
2024-10-23 10:47:25.190255,1.7479682874441145,3.9587645142734047,6.3052504835307595
2024-10-23 10:47:25.200262,4.912877841243148,1.765021129053831,2.4692823278427123
2024-10-23 10:47:25.210270,6.950210767567158,-0.8280337089300155,-3.519286470815539
2024-10-23 10:47:25.220277,7.683941221946477,-3.113349462431669,-11.458116061544418
2024-10-23 10:47:25.230284,8.30677267628312,-4.827914077445865,-20.465691905117033
2024-10-23 10:47:25.240291,8.464753745496273,-6.164879305288196,-27.409571131575106
2024-10-23 10:47:25.250299,6.6735758464008565,-6.9640200972110025,-29.61561987161636
2024-10-23 10:47:25.260305,4.718561722323298,-7.194925532859563,-28.76312976682186
2024-10-23 10:47:25.270312,4.198731208255887,-7.534964712443947,-27.20178295214176
2024-10-23 10:47:25.280319,4.640469013339281,-7.6871777196496724,-24.70559858884811
2024-10-23 10:47:25.290326,4.762437688928842,-6.851968420001864,-20.67489462752342
2024-10-23 10:47:25.300333,4.030869673280418,-5.207864411658048,-15.168855078542231
2024-10-23 10:47:25.310340,2.9826728719905016,-3.264740047338605,-9.620795419955254
2024-10-23 10:47:25.320347,1.7184274279221892,-1.5161866534829138,-4.73196773186326
2024-10-23 10:47:25.330354,0.7286053664505481,0.22885434833765028,-0.8614753752827644
2024-10-23 10:47:25.340362,0.1047703976271674,1.924296329730749,1.9429098447859285
2024-10-23 10:47:25.350369,-0.3966216656910255,3.347045990103483,3.841407424132526
2024-10-23 10:47:25.360376,-0.5937678569376468,4.453177678489685,5.5276715350747105
2024-10-23 10:47:25.370383,-0.5529981127191335,5.329325722247362,7.142352465057373
2024-10-23 10:47:25.380390,-0.5557663353234529,5.999057459446788,8.726356517225504
2024-10-23 10:47:25.390397,-0.6031611602375283,6.422683853778243,10.250256521564722
2024-10-23 10:47:25.400404,-0.7156994153872132,6.709297148123383,11.473727472174167
2024-10-23 10:47:25.410411,-0.9825622996017336,7.169086742725968,12.268422390604018
2024-10-23 10:47:25.420418,-1.357128456557542,7.610799997889995,12.620171297204493
2024-10-23 10:47:25.430425,-1.8306725818768144,7.919929075425863,12.71072309026718
2024-10-23 10:47:25.440432,-2.4789430133745074,8.075431187304854,12.791076145398616
2024-10-23 10:47:25.450439,-3.0349671228513118,8.172123382818699,12.641947075682877
2024-10-23 10:47:25.460446,-3.247954332232475,8.063808554050325,11.865983745729922
2024-10-23 10:47:25.470453,-3.2039637993365524,7.750309590867161,10.613200191396475
2024-10-23 10:47:25.480461,-2.8088828237488865,7.384449156805872,9.455695458647607
2024-10-23 10:47:25.490468,-1.938647803427279,6.813567085415125,8.656262405779957
2024-10-23 10:47:25.500475,-0.844423921912536,5.837982515871524,7.955860805028676
2024-10-23 10:47:25.510482,0.2421942703714594,4.489527925765514,6.905944340339302
2024-10-23 10:47:25.520489,1.2167157772608101,2.99184197461307,5.7628094937264915
2024-10-23 10:47:25.530496,2.252528167143464,1.5994856989383697,3.847595465117693
2024-10-23 10:47:25.540503,3.3818405323699117,0.033845570978522296,1.0853116031974552
2024-10-23 10:47:25.550510,4.745493860651552,-1.6869272510260342,-2.5984131501466035
2024-10-23 10:47:25.560517,5.31618216303587,-3.1537054382175205,-7.371834005382657
2024-10-23 10:47:25.570524,4.992296830394864,-4.091180934119224,-12.801101864850521
2024-10-23 10:47:25.580531,3.6731583511441945,-4.700352111893892,-17.535881147003174
2024-10-23 10:47:25.590538,1.8226245922386646,-4.976195590421558,-19.929105486559866
2024-10-23 10:47:25.600546,0.5592050776004791,-4.879864044913649,-19.694903931975364
2024-10-23 10:47:25.610553,0.2603143393538892,-4.618880866387486,-17.630092047095296
2024-10-23 10:47:25.620560,0.5101543387055397,-4.343053169950843,-14.588658650839328
2024-10-23 10:47:25.630567,0.6990417105749249,-3.8059132091641423,-11.069600728082657
2024-10-23 10:47:25.640574,0.5792283863883465,-2.850994995552301,-7.363113523310423
2024-10-23 10:47:25.650581,0.22756825404986739,-1.7027981893748043,-3.708668640464544
2024-10-23 10:47:25.660588,-0.2584801827292889,-0.5497445908159018,-0.377751362863183
2024-10-23 10:47:25.670595,-0.6976721757873893,0.4810562545150518,2.418961422881484
2024-10-23 10:47:25.680602,-0.9847284646596759,1.383278650727868,4.573540672448277
2024-10-23 10:47:25.690609,-1.0637809585865587,2.1076649381786585,6.019148645839095
2024-10-23 10:47:25.700616,-0.9714587948504835,2.603671509066224,6.892407397896051
2024-10-23 10:47:25.710623,-0.828095229858905,2.9343302813649177,7.3544380494236945
2024-10-23 10:47:25.720630,-0.6380008933525532,3.118629448661208,7.5094661140501495
2024-10-23 10:47:25.730638,-0.2540587860904634,3.1440561508625744,7.226947980064153
2024-10-23 10:47:25.740645,0.14084770971313118,2.9796763205230232,6.712525462520122
2024-10-23 10:47:25.750652,0.39473903028219937,2.862603600281477,6.273626680254936
2024-10-23 10:47:25.760659,0.5290479128111154,2.76819104013741,5.9041521473497145
2024-10-23 10:47:25.770666,0.49301243057288224,2.5311463710814714,5.610379628899693
2024-10-23 10:47:25.780673,0.43197986972220237,2.254391622927785,5.091669058772921
2024-10-23 10:47:25.790680,0.5514031716778874,1.8455197301357984,4.321507108575106
2024-10-23 10:47:25.800687,0.8153515566851943,1.3154752805680037,3.3085669141054153
2024-10-23 10:47:25.810694,1.0502726577159016,0.8641255975306034,1.8652485129565
2024-10-23 10:47:25.820701,0.8404793490052223,0.32778175555765626,0.09977496396005153
2024-10-23 10:47:25.830708,0.5336000962227583,-0.16458850465416908,-1.5069576373666524
2024-10-23 10:47:25.840715,0.33815709216482936,-0.4339443747282028,-3.010926029789448
2024-10-23 10:47:25.850722,0.10879968967586755,-0.828185684621334,-4.417019154393673
2024-10-23 10:47:25.860730,0.11918211361095309,-1.3451912043958902,-5.553209296435117
2024-10-23 10:47:25.870737,0.361943552878499,-1.899903646752238,-6.151057116162777
2024-10-23 10:47:25.880744,0.798709414768219,-2.25609725780189,-6.007476912745833
2024-10-23 10:47:25.890751,1.0970195766478776,-2.2149644524246455,-5.196024336260557
2024-10-23 10:47:25.900758,1.0852001056469975,-1.9986907687187194,-4.231662586998939
2024-10-23 10:47:25.910765,0.9139978819414972,-1.8009943597108125,-3.353991279196739
2024-10-23 10:47:25.920772,0.5407978987723588,-1.4547253458261489,-2.587971835631132
2024-10-23 10:47:25.930779,0.21917729619294404,-0.9305360520273447,-2.1155261730730532
2024-10-23 10:47:25.940786,-0.08167889690771699,-0.38858021539151666,-1.818632892253995
2024-10-23 10:47:25.950793,-0.3991146150179207,0.1969172413289547,-1.6361317142903804
2024-10-23 10:47:25.960800,-0.5031722247332334,0.5386176321238278,-1.5149708479523658
2024-10-23 10:47:25.970807,-0.615685089713335,0.9439303711295127,-1.2138000359445809
2024-10-23 10:47:25.980815,-0.9717781629979609,1.3756611614614724,-0.7230810500711202
2024-10-23 10:47:25.990822,-1.3771394173204898,1.6204069064140318,-0.3570592879682779
2024-10-23 10:47:26.000829,-1.5011008741624652,1.758762068659067,-0.19513561860919
2024-10-23 10:47:26.010836,-1.40754346954301,1.7704454921901225,-0.08002455382943154
2024-10-23 10:47:26.020843,-0.9768523975223302,1.4498200381278992,0.0615910715162754
2024-10-23 10:47:26.030850,-0.3349440484024584,0.9484896418690681,0.42463060293793675
2024-10-23 10:47:26.040857,0.09621632163040339,0.6211100373715162,0.7632365348488092
2024-10-23 10:47:26.050864,0.1520037483692169,0.2687555660933256,0.867893425631523
2024-10-23 10:47:26.060871,0.10347674108743667,0.031441432446241376,0.6683791535466909
2024-10-23 10:47:26.070878,0.06841141905561089,-0.17097615986466408,0.11764379812777041
2024-10-23 10:47:26.080885,0.10314356361031532,-0.5207359384745359,-0.5778191771775484
2024-10-23 10:47:26.090892,0.2210455742828548,-0.8202186512649059,-1.173541675314307
2024-10-23 10:47:26.100899,0.45918892529569566,-1.074651677495241,-1.6758575754791498
2024-10-23 10:47:26.110907,0.7131471005558967,-1.1388549773365257,-2.034807207238674
2024-10-23 10:47:26.120914,0.7006671198196709,-0.861455501538515,-1.779485707736015
2024-10-23 10:47:26.130921,0.34248226188756525,-0.3012549831598997,-0.8572568808048963
2024-10-23 10:47:26.140928,-0.13199476036764682,0.1961106011211872,0.13113514786362648
2024-10-23 10:47:26.150935,-0.4590934290319681,0.4804202946990728,0.8793886331140994
2024-10-23 10:47:26.160942,-0.558250261093676,0.6244137550920248,1.1794342404842375
2024-10-23 10:47:26.170949,-0.5624406985208392,0.5647621272057295,1.0065805963099002
2024-10-23 10:47:26.180956,-0.5154433119591325,0.407606402900815,0.6228045663297176
2024-10-23 10:47:26.190963,-0.30942382269874213,0.23240941047072408,0.14533260004222393
2024-10-23 10:47:26.200970,0.046768619307130575,-0.10484686039686203,-0.38364860420823094
2024-10-23 10:47:26.210977,0.4064721381738782,-0.38742169300615786,-0.6988052714705467
2024-10-23 10:47:26.220984,0.45036184104382987,-0.406080800768733,-0.6941057154774666
2024-10-23 10:47:26.230992,0.2845796696256846,-0.2706201909214258,-0.6102940443247556
2024-10-23 10:47:26.240999,0.11071772519163786,-0.11006547182798385,-0.5502765057355166
2024-10-23 10:47:26.251006,0.27714389360174535,-0.10279285047650337,-0.562116581133008
2024-10-23 10:47:26.261013,0.4465169291187078,-0.1910556558191776,-0.3634750002294779
2024-10-23 10:47:26.271020,0.32002076616734265,-0.06840425866246223,-0.055985506594181056
2024-10-23 10:47:26.281027,0.015182517693191766,0.1494476341456175,0.11014087515175341
2024-10-23 10:47:26.291034,-0.3061642363809049,0.3025678193241358,0.15727321320474147
2024-10-23 10:47:26.301041,-0.46272301770597696,0.3409218076378107,0.08227145597338675
2024-10-23 10:47:26.311048,-0.3711849170196801,0.19871932231485842,-0.07825462154746055
2024-10-23 10:47:26.321055,-0.09500767649300396,0.07255027242600917,-0.08170213165283202
2024-10-23 10:47:26.331062,0.04024740084484219,0.04518997181355953,-0.014590250888466834
2024-10-23 10:47:26.341069,-0.10470935162231325,0.03123743430674076,0.03877484407424926
2024-10-23 10:47:26.351077,-0.2908926521647721,0.11760288159549236,0.07058335626721382
2024-10-23 10:47:26.361084,-0.4393411922704428,0.1868342387318611,0.029922260054945943
2024-10-23 10:47:26.371090,-0.2742820013646036,0.16695231117606163,-0.11118950742185116
2024-10-23 10:47:26.381098,0.020088336848095058,-0.07258242112994194,-0.21834815189242363
2024-10-23 10:47:26.391104,0.14108232218660413,-0.21659926239848135,-0.19123218142986295
2024-10-23 10:47:26.401112,0.1385586489278823,-0.08660159413218498,-0.16869710901677606
2024-10-23 10:47:26.411119,0.037306013630703086,-0.018255203136801717,-0.1555073725759983
2024-10-23 10:47:26.421125,-0.015385639049857854,-0.044607203489542,-0.21365327207446097
2024-10-23 10:47:26.431133,0.05703786519132554,-0.05543196436464786,-0.24964170030057428
2024-10-23 10:47:26.441139,0.04480046103931963,-0.02623275788724422,-0.12641805621385574
2024-10-23 10:47:26.451147,-0.023553090349212286,0.047937809216976164,0.10176409195065497
2024-10-23 10:47:26.461154,0.07786627981700003,0.06211714121699333,0.20381986032426355
2024-10-23 10:47:26.471162,0.1458205296896398,-0.01559913567006588,0.13437807530760765
2024-10-23 10:47:26.481169,0.07054916173666716,-0.02680851194858551,0.10008651412725449
2024-10-23 10:47:26.491175,0.0373519716642797,-0.0017366145342588423,0.1095095915108919
2024-10-23 10:47:26.501183,0.039375732576847074,-0.016299392893910407,0.023266309297084807
2024-10-23 10:47:26.511189,0.11800254843756555,-0.05750818611681461,-0.05426233606338501
2024-10-23 10:47:26.521197,0.11258286147639154,-0.057765960270166394,0.024928105029463767
2024-10-23 10:47:26.531204,0.06254618028402328,0.027864743003249166,0.09171732971072197
2024-10-23 10:47:26.541210,0.10298851917907595,-0.003848492121696472,0.08654080385565757
2024-10-23 10:47:26.551218,0.17966303192824123,-0.11203238798677921,0.004174655336141586
2024-10-23 10:47:26.561224,0.1348429163403809,-0.12985679849088191,0.003643909460306167
2024-10-23 10:47:26.571232,0.020228402905911207,-0.015997195076942444,0.038242929154634474
2024-10-23 10:47:26.581240,-0.11363748509585857,0.08116612507998942,0.05146715238690376
2024-10-23 10:47:26.591247,-0.1812351035505533,0.11184241837263106,0.05902326685488224
2024-10-23 10:47:26.601254,-0.02797419472709298,0.0871668267995119,-0.03690378950536251
2024-10-23 10:47:26.611260,0.09549640985801816,-0.04927110364735126,-0.20235037229359149
2024-10-23 10:47:26.621268,0.03445975735411048,-0.0948223099887371,-0.2355325109273195
2024-10-23 10:47:26.631274,-0.06020414720252156,-0.0027156886994838714,-0.21203297739624977
2024-10-23 10:47:26.641282,-0.1618715007804334,0.08639058173000812,-0.14909925909936428
2024-10-23 10:47:26.651289,-0.1346368723742664,0.09859481426477432,-0.06257774446606636
2024-10-23 10:47:26.661295,0.10668182073906063,0.038346389529109,-0.04015548477768898
2024-10-23 10:47:26.671303,0.1562701736420393,-0.0574561636686325,0.008054127117991448
2024-10-23 10:47:26.681309,0.0031542262472212313,-0.02742985871732235,0.057927872833609576
2024-10-23 10:47:26.691317,-0.16863412678316234,0.09303367300629616,0.0341547830581665
2024-10-23 10:47:26.701324,-0.3708222942523658,0.1763210280239582,-0.02969721912741661
2024-10-23 10:47:26.711332,-0.45498204819038507,0.21255203283429144,-0.1033142440021038
2024-10-23 10:47:26.721339,-0.1794656096599996,0.07844692924916744,-0.1447065770983696
2024-10-23 10:47:26.731345,0.3060992083206773,-0.1904243721783161,-0.04614683414697647
2024-10-23 10:47:26.741352,0.4499770795099437,-0.3111854255437851,0.013781272593140602
2024-10-23 10:47:26.751359,0.367025678448379,-0.22773557344079015,-0.004822890111804009
2024-10-23 10:47:26.761367,0.18705138861387968,-0.12996376599669457,0.0991968718111515
2024-10-23 10:47:26.771374,-0.005453443100303411,-0.030333178943395614,0.18269699279665946
2024-10-23 10:47:26.781380,-0.04988952780663967,0.07024725618064404,0.21294015536904334
2024-10-23 10:47:26.791388,0.01746785215139389,0.07889525753855704,0.1757546263128519
2024-10-23 10:47:26.801394,0.048004298581928014,-0.0214104522973299,0.12440554734766482
2024-10-23 10:47:26.811403,0.04361205497235059,-0.028150574207305906,0.03305588190555572
2024-10-23 10:47:26.821409,-0.07898088999539614,0.03984393461048603,-0.02071194863915443
2024-10-23 10:47:26.831417,-0.1670718459025025,0.11224106230139731,-0.06703530839681625
2024-10-23 10:47:26.841424,-0.16290888100415468,0.13969254832863806,-0.15460194816887377
2024-10-23 10:47:26.851430,-0.01369680918008089,0.0820651197463274,-0.15855390066504477
2024-10-23 10:47:26.861437,0.07365224231854081,-0.02091068608164787,-0.13442249897122382
2024-10-23 10:47:26.871444,0.08351035011857748,-0.0342985754430294,-0.10611468837559222
2024-10-23 10:47:26.881452,0.0585410362958908,-0.02559153737425804,-0.055924131795763964
2024-10-23 10:47:26.891459,-0.005485153412818908,0.01291734924018383,-0.026520927178859708
2024-10-23 10:47:26.901465,0.011711188320815562,0.02879179472029209,0.03404489294290542
2024-10-23 10:47:26.911473,0.04448196967467665,0.0220727155983448,0.10345686734318732
2024-10-23 10:47:26.921480,0.03176803405210376,-0.009856792625784873,0.09272504544854164
2024-10-23 10:47:26.931488,0.008561638248711824,0.0017050503522157668,0.03701134153306484
2024-10-23 10:47:26.941494,0.0042614568367600435,0.027930209454894064,-0.025358313140273092
2024-10-23 10:47:26.951502,-0.03036123599410057,0.012072130587697029,-0.002359130346775055
2024-10-23 10:47:26.961509,-0.04905249246060848,0.042647886115312575,0.04542085795998573
2024-10-23 10:47:26.971515,-0.06750614077895879,0.06775076318979263,0.057761868616938584
2024-10-23 10:47:26.981523,-0.03617123744711279,0.02390752981007099,-0.059924015086889264
2024-10-23 10:47:26.991529,0.1256301207065582,-0.08339958322048187,-0.1797498334288597
2024-10-23 10:47:27.001537,0.13570216351822018,-0.1383317813694477,-0.19497896674275397
2024-10-23 10:47:27.011544,0.058595250701159236,-0.07882453038990497,-0.15645020638406276
2024-10-23 10:47:27.021550,-0.09268281374201177,0.048719899505376814,-0.02575403445959091
2024-10-23 10:47:27.031559,-0.18449352082461118,0.1471808582574129,0.08829320048093796
2024-10-23 10:47:27.041565,-0.10204904637187719,0.13455226283073424,0.1229074177443981
2024-10-23 10:47:27.051573,0.0713683691650629,-0.0393961908429861,-0.023638065218925475
2024-10-23 10:47:27.061579,0.10047186018303036,-0.12377134109735488,-0.08889993420243263
2024-10-23 10:47:27.071587,0.05626636936217546,-0.030974983978271482,-0.057737903219461435
2024-10-23 10:47:27.081594,-0.06791238349229096,0.03820902688503265,-0.01529459976553917
2024-10-23 10:47:27.091600,-0.20525573834627867,0.09211772720515728,0.06086743341684341
2024-10-23 10:47:27.101608,-0.20842823090255258,0.12844459360539912,0.11240472843050955
2024-10-23 10:47:27.111614,0.03557064120545983,0.09093523942232132,-0.017877601996064186
2024-10-23 10:47:27.121622,0.18712825324237345,-0.09103285457789898,-0.1651490611463785
2024-10-23 10:47:27.131629,0.1285688045069575,-0.11061901405751705,-0.2059709008783102
2024-10-23 10:47:27.141637,0.00548354597762227,-0.018163433200120926,-0.14636252761185167
2024-10-23 10:47:27.151644,-0.13324074184074997,0.08247194698154926,-0.0379237802028656
2024-10-23 10:47:27.161650,-0.13232391925677656,0.10186287615001201,0.024009821140766142
2024-10-23 10:47:27.171658,0.029638182416558263,0.040888475227355954,0.029710078608989714
2024-10-23 10:47:27.181664,0.10399214326366782,-0.04903612584769725,0.033144144710898396
2024-10-23 10:47:27.191672,0.05215878791287541,-0.0663578475266695,0.029126725763082503
2024-10-23 10:47:27.201679,0.03716170978918672,-0.08225450483858585,0.006851765590906143
2024-10-23 10:47:27.211685,0.03816767196133732,-0.019263503396511075,0.04434241507351398
2024-10-23 10:47:27.221693,-0.03048471624329686,0.03292144187092781,0.11879705981612204
2024-10-23 10:47:27.231699,-0.0948310778170824,0.06324059228897094,0.12281097163259982
2024-10-23 10:47:27.241707,-0.09697729606553912,0.09711246675252914,0.05586100343167782
2024-10-23 10:47:27.251714,0.005065612826496362,0.04623217434287071,-0.07903788087964057
2024-10-23 10:47:27.261722,-0.007468143923580646,-0.013274492114782332,-0.16817922262251375
2024-10-23 10:47:27.271729,-0.09152370683476328,0.030047347739338873,-0.15079144997000693
2024-10-23 10:47:27.281735,-0.07518719680085778,0.07219780572652816,-0.15307225438356398
2024-10-23 10:47:27.291743,0.029969314067065714,0.03464110527038574,-0.11129472136199474
2024-10-23 10:47:27.301749,0.015883651699870823,0.017286065843701362,-0.00912321765422821
2024-10-23 10:47:27.311757,0.018080869483202696,0.018529928424954413,0.030164836639165877
2024-10-23 10:47:27.321764,0.13182006138786673,-0.0233580792337656,0.011771686336398125
2024-10-23 10:47:27.331770,0.17511179836466909,-0.08409633331298827,-0.0010574000984430313
2024-10-23 10:47:27.341778,0.1006551077954471,-0.08506605512797832,-0.015244915404915809
2024-10-23 10:47:27.351784,0.039911008497327566,-0.054692544174194335,-0.07089549095630646
2024-10-23 10:47:27.361793,-0.036601591688394546,0.014556348618865012,-0.055201078218221664
2024-10-23 10:47:27.371800,-0.03228036748841405,0.04280044632852077,0.0071866966336965555
2024-10-23 10:47:27.381808,-0.041684155649691815,0.03377425930798054,0.03806640354394913
2024-10-23 10:47:27.391814,-0.0853285054564476,0.0370218629270792,0.030079496443271635
2024-10-23 10:47:27.401822,-0.09472045704945921,0.04393032714128494,0.03190612734854221
2024-10-23 10:47:27.411829,-0.08187164300084114,0.057171501508355135,-0.002214168918132782
2024-10-23 10:47:27.421836,-0.019365648596733807,0.051315761217474935,-0.04893091190755367
2024-10-23 10:47:27.431843,0.020405513038486242,0.004295066845417022,-0.05605681826472282
2024-10-23 10:47:27.441849,0.0062432783037424085,-0.016672902381420135,-0.024021511578559872
2024-10-23 10:47:27.451857,-0.004211480215191841,-0.009728782331943511,-0.012449147206544876
2024-10-23 10:47:27.461864,0.0014554595053195953,0.0009545242458581924,-0.0039782559812068935
2024-10-23 10:47:27.471871,0.020725684903562067,0.00267827929854393,0.053334699824452395
2024-10-23 10:47:27.481878,-0.0021647768184542655,-0.046234512430429454,0.03762392047345638
2024-10-23 10:47:27.491886,0.024437106642127036,-0.03469780389368534,0.03188859169185161
2024-10-23 10:47:27.501893,0.06614902708157896,-0.029215573090314865,-0.024683190357685087
2024-10-23 10:47:27.511899,0.07450301392897964,-0.056820788374543185,-0.0872667800426483
2024-10-23 10:47:27.521907,0.05123904271945357,-0.07763210573494433,-0.05598316850662231
2024-10-23 10:47:27.531914,-0.021811872705072163,0.001017068088054657,-0.021098317608237264
2024-10-23 10:47:27.541921,0.04758505025655031,0.019992986714839935,0.020130933880805967
2024-10-23 10:47:27.551928,0.0021235680252313614,-0.017436287969350813,0.026526772397756575
2024-10-23 10:47:27.561935,-0.04182429477274418,0.015647650986909865,-0.023415362378954887
2024-10-23 10:47:27.571942,-0.039591275023669,0.03782148887217045,-0.029154782813787458
2024-10-23 10:47:27.581949,-0.04084244412854313,0.021091303345561026,-0.015272387933731079
2024-10-23 10:47:27.591956,-0.043348435600101945,0.014471008422970772,0.0008095628172159195
2024-10-23 10:47:27.601963,-0.007163461888581514,-0.014940379500389098,-0.04938157828450203
2024-10-23 10:47:27.611971,0.07687135049551724,-0.05953121637701988,-0.11326514465212821
2024-10-23 10:47:27.621978,0.045281303358823057,-0.03595686404407024,-0.06683773999810218
2024-10-23 10:47:27.631984,0.00731309949234128,-0.020168927803635595,-0.008247603863477707
2024-10-23 10:47:27.641992,0.00414396793693304,0.00723228934109211,0.03107844435274601
2024-10-23 10:47:27.651999,-0.0003616729192435741,0.022633272090554237,0.11056114639043807
2024-10-23 10:47:27.662006,-0.015869330913573503,0.024791911429166792,0.10744798280596732
2024-10-23 10:47:27.672013,-0.01080459486991167,0.006557166558504105,0.06461655681729317
2024-10-23 10:47:27.682020,0.05060702842622995,0.016343232035636902,-0.0005079495221376419
2024-10-23 10:47:27.692027,0.042972295764088626,-0.002531564304232597,-0.040489246776700016
2024-10-23 10:47:27.702033,0.02705707988217473,0.010372340932488441,-0.08821604359149933
2024-10-23 10:47:27.712041,-0.007057809557020664,0.023727497068047523,-0.10891396370530128
2024-10-23 10:47:27.722048,-0.056119069845974444,0.048881812068819995,-0.07095394314527512
2024-10-23 10:47:27.732056,-0.10129282117709516,0.07516250075101852,-0.05562544111013412
2024-10-23 10:47:27.742063,-0.09534268060103059,0.06922785000503062,-0.06834697551727295
2024-10-23 10:47:27.752069,-0.025254560504853724,0.020160744497179982,-0.08166472225189209
2024-10-23 10:47:27.762077,-0.006326572673022747,-0.0011485855132341385,-0.06024257951676845
2024-10-23 10:47:27.772084,-0.04526902839913964,0.010445990690588951,-0.04859247373342514
2024-10-23 10:47:27.782091,-0.039744419758766886,0.02095335617959499,-0.012153379130363464
2024-10-23 10:47:27.792098,-0.0211687524959445,0.0061263739258050915,-0.01809212152957916
2024-10-23 10:47:27.802105,0.050593438292294735,-0.033057050949335094,-0.06256546950638293
2024-10-23 10:47:27.812112,0.0965532254345715,-0.020237316864728926,-0.06239771172404289
2024-10-23 10:47:27.822118,0.051202071709930894,-0.0018400749087333678,-0.04338146108686924
2024-10-23 10:47:27.832126,0.010312135177850722,0.009037292936444282,-0.01877542761862278
2024-10-23 10:47:27.842133,-0.00688259912058711,0.02052080998122692,0.03125789257287979
2024-10-23 10:47:27.852140,0.025934505593031645,0.01661561923623085,0.08679448635578155
2024-10-23 10:47:27.862148,0.019786942748725413,0.005454758274555206,0.06450549765825271
2024-10-23 10:47:27.872154,0.02338204463124275,-0.003161094379425049,0.020433131697773933
2024-10-23 10:47:27.882162,-0.0031561259433627127,-0.014765022933483123,-0.04254910191595554
2024-10-23 10:47:27.892168,-0.02417465631365776,-0.020853402936458588,-0.06801262899637221
2024-10-23 10:47:27.902176,-0.04994052734151482,0.004340659552812576,-0.04441664935350418
2024-10-23 10:47:27.912183,-0.08253200660571455,0.029127894806861877,0.019284546184539793
2024-10-23 10:47:27.922190,-0.003706014911085367,0.015068974316120146,0.032495325413346286
2024-10-23 10:47:27.932197,0.12539324321076273,-0.0030219781696796417,0.08777005338966846
2024-10-23 10:47:27.942204,-0.010214666152745485,-0.09049509443938732,9.0016371011734e-05
2024-10-23 10:47:27.952211,-0.014508563954383134,-0.033684242936968804,-0.10011457117795944
2024-10-23 10:47:27.962218,-0.0003493979595601558,0.026834815433621404,-0.11605682119727134
2024-10-23 10:47:27.972226,0.014778174676001071,-0.0009141922354698181,-0.12064297994375228
2024-10-23 10:47:27.982233,0.01771189004033804,-0.00021101240217685698,-0.04058627741038799
2024-10-23 10:47:27.992239,-0.003869973301142454,0.044104514664411544,0.037327567875385284
2024-10-23 10:47:28.002247,0.00837765998393297,0.019403788650035857,0.06213058522045612
2024-10-23 10:47:28.012253,0.005188216292858124,0.01576513988673687,0.04459902018308639
2024-10-23 10:47:28.022261,-0.0003093582101166248,0.029400282007455824,0.011280103427171706
2024-10-23 10:47:28.032268,0.016530717431753873,0.018066987088322637,-0.023186814320087432
2024-10-23 10:47:28.042275,-0.04825462008118629,0.007477788534760475,-0.035195816543698306
2024-10-23 10:47:28.052282,-0.1065175700880587,0.037491818526387215,-0.020922376519441604
2024-10-23 10:47:28.062289,-0.08918927253782749,0.0470300467222929,-0.07310849083065986
2024-10-23 10:47:28.072296,-0.011297639083862304,-0.009112696260213852,-0.15999182451367377
2024-10-23 10:47:28.082304,0.02304375258758664,-0.03376666052341461,-0.17304127570092678
2024-10-23 10:47:28.092311,0.021196955677121876,-0.028265725019574164,-0.12034078212678431
2024-10-23 10:47:28.102318,0.0318162571080029,-0.007799275574088096,-0.06186462776064872
2024-10-23 10:47:28.112324,-0.0009413725033402443,0.02102057619690895,0.014226093751192092
2024-10-23 10:47:28.122332,-0.016265198363363743,0.0363245283126831,0.06255319454669953
2024-10-23 10:47:28.132338,0.004491612330824136,0.031149171501398086,0.09392682245373725
2024-10-23 10:47:28.142346,0.04797331892177462,0.017547347128391264,0.07236088733375072
