time,accel_x,accel_y,accel_z
2024-10-23 10:49:03.430501,0.03318767789194826,0.07530103243887425,-0.004460486540198326
2024-10-23 10:49:03.440509,0.04034044029000215,0.05829396619964391,-0.015380524483323096
2024-10-23 10:49:03.450516,0.044798081852565515,0.06207147544436156,-0.009696049106121063
2024-10-23 10:49:03.460523,0.03160946422321722,0.07293423024229705,-0.005952770924568176
2024-10-23 10:49:03.470531,0.03186920657136943,0.08501300976648926,-0.008490764969587325
2024-10-23 10:49:03.480537,0.016307955226278863,0.08604914788119494,0.01754676260650158
2024-10-23 10:49:03.490546,0.027309935831814073,0.07099252158999443,0.004825812721252441
2024-10-23 10:49:03.500552,0.039232643444882705,0.05689315949101001,-0.009692541974782943
2024-10-23 10:49:03.510559,0.01812712891087867,0.0501888395467773,-0.009693711018562316
2024-10-23 10:49:03.520566,0.018580736163584514,0.049714682696387166,0.002720364874601364
2024-10-23 10:49:03.530573,0.026494596294360233,0.056612296723015605,-0.014189853394031523
2024-10-23 10:49:03.540581,0.0349961703523295,0.0628035160459578,-0.012983984735608101
2024-10-23 10:49:03.550587,0.027356377922580576,0.07905581839513033,0.0072188453376293175
2024-10-23 10:49:03.560596,0.036950016966997644,0.07689034745693206,-0.008634557354450225
2024-10-23 10:49:03.570602,0.038968311686581,0.08047295518405735,-0.015666355687379837
2024-10-23 10:49:03.580609,0.04337757036304101,0.0705143826842308,-0.014921090278029441
2024-10-23 10:49:03.590617,0.0380713674134342,0.05776223394311964,-0.02091068608164787
2024-10-23 10:49:03.600623,0.015036565317283384,0.05430701545532793,-0.008790624698996543
2024-10-23 10:49:03.610631,0.026004853715770878,0.07152045445423573,0.004382160606980323
2024-10-23 10:49:03.620639,0.03409060894788708,0.06927457522358745,-0.001449029764533043
2024-10-23 10:49:03.630646,0.0232814520672895,0.0636812121959403,-0.011023498317599295
2024-10-23 10:49:03.640652,0.022148685177695006,0.05933609566371888,0.00035480478703975673
2024-10-23 10:49:03.650659,0.03510255790282972,0.09492756046149879,0.0008048866420984267
2024-10-23 10:49:03.660666,0.030203004091931506,0.07163136748280376,-0.007725625815987586
2024-10-23 10:49:03.670673,0.03058796655521728,0.06389361283760517,-0.004879004213213921
2024-10-23 10:49:03.680681,0.03659066843558103,0.05954856937061995,-0.003233575093746185
2024-10-23 10:49:03.690688,0.029393774634855797,0.049337081555649635,-0.019393267256021498
2024-10-23 10:49:03.700696,0.020967005679034628,0.07114906385857611,-0.002034136176109314
2024-10-23 10:49:03.710702,0.022347591583547183,0.07074161556884646,-0.0017319383591413496
2024-10-23 10:49:03.720709,0.014899462968111038,0.07680727228336036,0.002610474759340286
2024-10-23 10:49:03.730716,0.03431453106398694,0.0799035212656483,-0.01669043803811073
2024-10-23 10:49:03.740724,0.029596137939696197,0.0695199648194015,-0.015645897421240805
2024-10-23 10:49:03.750731,0.026358918717293997,0.06665814564749598,-0.006223404559493065
2024-10-23 10:49:03.760738,0.038980595779418946,0.0644838703483343,0.0012608137160539626
2024-10-23 10:49:03.770746,0.040889064315822905,0.05525730191748589,-0.009359949019551277
2024-10-23 10:49:03.780752,0.008463899795548058,0.06413991574887186,-0.014145429730415344
2024-10-23 10:49:03.790759,0.02447624677584972,0.08462470456864685,-0.005310965889692306
2024-10-23 10:49:03.800766,0.04036248772502877,0.0667089259866625,-0.017278467059135435
2024-10-23 10:49:03.810773,0.030029442189889958,0.08158530034013092,-0.016826631638407707
2024-10-23 10:49:03.820782,0.03286396236291621,0.0745304864577949,-0.010839373922348022
2024-10-23 10:49:03.830788,0.03793339741458185,0.05969130230955779,0.006070844346284866
2024-10-23 10:49:03.840796,0.041354124544304795,0.08098415610920637,0.007121814703941345
2024-10-23 10:49:03.850802,0.02119882797379978,0.06846994430981576,-0.004247720572352409
2024-10-23 10:49:03.860809,0.03313589290578384,0.07305668757818638,0.0026315175473690033
2024-10-23 10:49:03.870816,0.02777727021577302,0.07375084385480732,-0.0039449382334947585
2024-10-23 10:49:03.880824,0.028383547279541378,0.06306242271047086,-0.0019967267751693726
2024-10-23 10:49:03.890831,0.014721224890951998,0.07902213532123714,-0.005432546442747116
2024-10-23 10:49:03.900838,0.019401386630395426,0.07555752795059234,-0.003786532801389694
2024-10-23 10:49:03.910846,0.03631701172650791,0.06813296744041145,0.0007008417457342147
2024-10-23 10:49:03.920852,0.03850763993884902,0.05605426098145544,-0.010967384216189384
2024-10-23 10:49:03.930859,0.04872191336594987,0.0645958793554455,-0.004239537265896797
2024-10-23 10:49:03.940867,0.01992300848485902,0.060735550665482876,0.002797521764039993
2024-10-23 10:49:03.950874,0.01822384901731275,0.048014710378088056,0.0004033201038837433
2024-10-23 10:49:03.960881,0.039874000955186784,0.06860398248564452,-0.010219196197390555
2024-10-23 10:49:03.970888,0.05085915372350718,0.07348601890616119,-0.008715221375226973
2024-10-23 10:49:03.980896,0.030101877238438463,0.07982830060496926,-0.0012292495340108871
2024-10-23 10:49:03.990902,0.024756593520613386,0.06477320868372917,-0.010348960056900978
2024-10-23 10:49:04.000909,0.02306864956682548,0.06904394480548799,-0.012286065599322318
2024-10-23 10:49:04.010917,0.042237926208088174,0.06712295014765113,0.00732113666832447
2024-10-23 10:49:04.020924,0.02764757942149881,0.06498999323956668,-0.0028530513435602186
2024-10-23 10:49:04.030931,0.022915043607424013,0.06594722089916467,-0.026048633491992948
2024-10-23 10:49:04.040939,0.0375763595712604,0.062169930850155646,0.008818097227811813
2024-10-23 10:49:04.050946,0.02900232306527905,0.06386014895942062,-0.004949731361865997
2024-10-23 10:49:04.060952,0.04352409356110729,0.06299870982449501,-0.021859949630498886
2024-10-23 10:49:04.070961,0.035845266028912734,0.06295169234499334,0.008518237498402595
2024-10-23 10:49:04.080967,0.0233620475894073,0.06934479091558605,-0.0018003274202346802
2024-10-23 10:49:04.090974,0.03317366763290483,0.04874653178397566,-0.02484159578979015
2024-10-23 10:49:04.100981,0.024980319273890925,0.058019715835526585,0.004193944558501243
2024-10-23 10:49:04.110988,0.034924383757752364,0.06150357589591294,-0.008821019837260245
2024-10-23 10:49:04.120996,0.03816869487464428,0.05883541613258421,-0.011210545322299002
2024-10-23 10:49:04.131002,0.03471046701243613,0.0689792455388233,-0.004775543838739395
2024-10-23 10:49:04.141010,0.021893144080624913,0.06682038700450212,-0.016295885762572286
2024-10-23 10:49:04.151017,0.032351861822046336,0.053774735209532076,-0.015104045629501342
2024-10-23 10:49:04.161024,0.028524974177381954,0.07682071628682315,-0.007473112359642982
2024-10-23 10:49:04.171032,0.03719903242515866,0.07082056255657225,-0.0059761518001556395
2024-10-23 10:49:04.181038,0.03225218257354572,0.06255286575313657,-0.004634674063324928
2024-10-23 10:49:04.191046,0.03552684316292871,0.0761156002247706,-0.005082417830824851
2024-10-23 10:49:04.201053,0.020972471872018648,0.06905833865702152,0.0019511340677738189
2024-10-23 10:49:04.211061,0.02559152367452625,0.05548544811755418,-0.003731587743759155
2024-10-23 10:49:04.221067,0.030282722831214776,0.06921652489341795,0.009144260442256927
2024-10-23 10:49:04.231074,0.03207921432654839,0.06740721044912934,0.008845569756627081
2024-10-23 10:49:04.241082,0.04890411979875062,0.07431921832729131,-0.04292494949102402
2024-10-23 10:49:04.251088,0.028787068312824703,0.06340276058074086,0.0004699555993080139
2024-10-23 10:49:04.261096,0.01386942580062896,0.0723857295140624,0.0037619828820228576
2024-10-23 10:49:04.271103,0.02432685576726217,0.06713328887857496,-0.017790508234500884
2024-10-23 10:49:04.281111,0.030300696879322638,0.054586161190271376,-0.011949965512752533
2024-10-23 10:49:04.291117,0.02987439319207333,0.0659392567884177,0.009448796346783637
2024-10-23 10:49:04.301124,0.019439864610414952,0.070539407527633,-0.01747954258918762
2024-10-23 10:49:04.311131,0.02134246052845847,0.05433536476697772,0.01200023439526558
2024-10-23 10:49:04.321138,0.036432189938239753,0.06312441856339573,-0.004457563930749893
2024-10-23 10:49:04.331146,0.026376267144316807,0.06302884923443197,-0.00789630620777607
2024-10-23 10:49:04.341153,0.028498912720941006,0.08026837252266704,0.002732639834284782
2024-10-23 10:49:04.351161,0.027366698387195354,0.06183591312281787,0.005283493360877037
2024-10-23 10:49:04.361167,0.014343719648336991,0.06418262237943709,0.005285246926546096
2024-10-23 10:49:04.371174,0.021742154769995248,0.06366002327743918,-0.005032733470201492
2024-10-23 10:49:04.381181,0.040204940809449176,0.0702835330704227,-0.009666823011636733
2024-10-23 10:49:04.391189,0.032400993626820855,0.0666016296872869,-0.007425766086578369
2024-10-23 10:49:04.401196,0.03486054757419042,0.05946224279403686,-0.009672083708643912
2024-10-23 10:49:04.411203,0.03049693640405312,0.06526354948394,-0.017447978407144547
2024-10-23 10:49:04.421211,0.010872002116893417,0.07333919431399553,0.00769581519961357
2024-10-23 10:49:04.431217,0.03427932275328785,0.07137191282901913,-0.016694529691338538
2024-10-23 10:49:04.441224,0.03192479094981682,0.06942370137069374,-0.0002408230185508728
2024-10-23 10:49:04.451232,0.018328346004826017,0.056975321349129075,-0.00398059406876564
2024-10-23 10:49:04.461239,0.03750308883907273,0.08253076449669897,-0.009964929175376891
2024-10-23 10:49:04.471246,0.03719785881480202,0.05640040753800422,0.006647767451405525
2024-10-23 10:49:04.481253,0.027472556214733046,0.06655318743567913,-0.010261866295337676
2024-10-23 10:49:04.491260,0.035076921138074244,0.060674066269211464,-0.0011316343784332275
2024-10-23 10:49:04.501267,0.033076719197607594,0.05229158397968858,0.017279051581025124
2024-10-23 10:49:04.511275,0.04483930434552021,0.06378792397342622,-0.0032207156121730803
2024-10-23 10:49:04.521283,0.02646879969940055,0.04934566672090441,-0.011896774020791053
2024-10-23 10:49:04.531289,0.018962529422249644,0.04783562748413533,-0.006209960556030273
2024-10-23 10:49:04.541296,0.021362229241430757,0.06221318546999245,0.0066582888454198835
2024-10-23 10:49:04.551303,0.02120685145005118,0.052913040346279736,-0.015187632259726523
2024-10-23 10:49:04.561310,0.03700046394602395,0.05671433232538402,-0.0068108490586280815
2024-10-23 10:49:04.571317,0.020122718608309515,0.07581128351595252,-0.010255436554551123
2024-10-23 10:49:04.581325,0.034942965160636226,0.05736238443795591,-0.008608253869414328
2024-10-23 10:49:04.591332,0.029811118697514755,0.062418133457563814,-0.010547112977504729
2024-10-23 10:49:04.601339,0.019138844970380885,0.036568858462572094,0.007413491126894951
2024-10-23 10:49:04.611346,0.032185642976243975,0.046910731191560626,-0.0030512042641639707
2024-10-23 10:49:04.621353,0.028132499694498256,0.07158467879686504,-0.014417232409119605
2024-10-23 10:49:04.631360,0.0259390128047904,0.05977412175480276,-0.0048363341152668
2024-10-23 10:49:04.641368,0.028332721274602225,0.07414419055394827,-0.008422375908493995
2024-10-23 10:49:04.651375,0.04678911867246497,0.047991219904646276,-0.016050386568903924
2024-10-23 10:49:04.661382,0.042949257381795905,0.060903564176149665,-0.011108253991603851
2024-10-23 10:49:04.671389,0.019300017748307436,0.06699709527827799,0.0005716624081134796
2024-10-23 10:49:04.681396,0.024572902950202112,0.06598287673443555,-0.006457213315367698
2024-10-23 10:49:04.691403,0.027513308350229634,0.06163067287430167,-0.007947744134068489
2024-10-23 10:49:04.701411,0.02558120320991147,0.06121540660429745,-0.004796002104878425
2024-10-23 10:49:04.711418,0.02626870598345995,0.05488620358277112,-0.001048047748208046
2024-10-23 10:49:04.721425,0.028057082670996894,0.07715714516695589,-0.0026934768676757813
2024-10-23 10:49:04.731432,0.019280007006740197,0.06572075519952923,0.000301028773188591
2024-10-23 10:49:04.741439,0.022456883477186784,0.04669263146147132,-0.015404489880800246
2024-10-23 10:49:04.751446,0.017623700300231575,0.06236285960637033,-0.0008873042285442352
2024-10-23 10:49:04.761453,0.013243243026570416,0.058346938495896755,0.003301379632949829
2024-10-23 10:49:04.771461,0.013024348712037316,0.0637276451535523,-0.017498831811547277
2024-10-23 10:49:04.781468,0.017147926881490274,0.07459715848583727,-0.009122633132338524
2024-10-23 10:49:04.791475,0.03301598828658461,0.0667157210536301,0.0019487959802150724
2024-10-23 10:49:04.801482,0.02384101304565556,0.05618212514482438,-0.01705868682861328
2024-10-23 10:49:04.811489,0.016689785017562096,0.056048488827794785,-0.0007476034969091414
2024-10-23 10:49:04.821496,0.032632473428291266,0.0724950351074338,0.001048047748208046
2024-10-23 10:49:04.831504,0.02983895655251108,0.06424330305811017,-0.002237549793720245
2024-10-23 10:49:04.841511,0.038373629162483845,0.07208144933786242,0.002853635865449905
2024-10-23 10:49:04.851518,0.04121722769110929,0.07040712291747331,-0.00746492905318737
2024-10-23 10:49:04.861525,0.01617568888242822,0.06436864647082984,-0.0005745850175619125
2024-10-23 10:49:04.871532,0.039984658255428074,0.06040262891668826,-0.010597966381907463
2024-10-23 10:49:04.881539,0.019585173098929227,0.07374558315780014,0.012001987960934638
2024-10-23 10:49:04.891547,0.01916869211937301,0.06383961762804538,-0.0004173486292362213
2024-10-23 10:49:04.901554,0.04195137805140111,0.0713312520250678,-0.009990063616633415
2024-10-23 10:49:04.911561,0.018137485908111557,0.06204458743743598,-0.008937339693307875
2024-10-23 10:49:04.921568,0.024387846973189152,0.04562339479476213,-0.002199555870890617
2024-10-23 10:49:04.931575,0.017725338610378092,0.06645619333460927,-0.010420856249332427
2024-10-23 10:49:04.941582,0.01891403237171471,0.059763563828170295,-0.010566402199864386
2024-10-23 10:49:04.951590,0.028618922371417284,0.05751848831512034,-0.003533434823155403
2024-10-23 10:49:04.961597,0.02070470148103777,0.06322751361168921,0.005898410388827323
2024-10-23 10:49:04.971604,0.020990350022003983,0.05306260488480329,-0.005918284133076667
2024-10-23 10:49:04.981611,0.021223236329271457,0.05752130132671445,-0.004870236384868621
2024-10-23 10:49:04.991618,0.043015609749429855,0.0566784572944045,-7.89104551076889e-05
2024-10-23 10:49:05.001625,0.032150420965813095,0.04772518937960267,-0.005611410140991211
2024-10-23 10:49:05.011632,0.02563291056426242,0.062047436981648205,8.124854266643523e-05
2024-10-23 10:49:05.021640,0.02628026855709031,0.07407569189500063,-0.0024538228929042814
2024-10-23 10:49:05.031647,0.03185440629445947,0.08271021271683275,-0.006785714617371558
2024-10-23 10:49:05.041654,0.036056442827871064,0.05109050109423697,0.000997194343805313
2024-10-23 10:49:05.051661,0.03343177057981957,0.0547436167743057,-0.009480360528826713
2024-10-23 10:49:05.061668,0.045056111734244036,0.04478975698221475,0.005336100330948829
2024-10-23 10:49:05.071676,0.023358805319550445,0.06501056110356003,-0.004541735082864761
2024-10-23 10:49:05.081683,0.03258534635093529,0.05824873881842941,-0.0153150580316782
2024-10-23 10:49:05.091690,0.041528910289052874,0.07111096033789217,0.0002484218031167984
2024-10-23 10:49:05.101697,0.032306556809018366,0.06356262731757015,-0.007082067215442657
2024-10-23 10:49:05.111704,0.017800545571325346,0.06628452656213193,-0.009627075523138046
2024-10-23 10:49:05.121711,0.034982566518662495,0.05724522433169186,-0.0015390461355447769
2024-10-23 10:49:05.131718,0.03531325977775268,0.05010017488263547,-0.008574351599812508
2024-10-23 10:49:05.141726,0.02421889731418341,0.05363642271738499,-0.01575461849272251
2024-10-23 10:49:05.151733,0.02203821054054424,0.045078145469538866,-0.014102175110578536
2024-10-23 10:49:05.161740,0.028903589098271912,0.05382785363625735,-0.01979191118478775
2024-10-23 10:49:05.171747,0.01695959210200235,0.05930591972116381,0.0040080665975809095
2024-10-23 10:49:05.181754,0.020223347704880868,0.04847425418123603,-0.02053600755035877
2024-10-23 10:49:05.191761,0.018941162407235243,0.055492754641175264,-0.023828034833073615
2024-10-23 10:49:05.201770,0.02192060747628566,0.06790712279528378,-0.011114099210500716
2024-10-23 10:49:05.211776,0.011924826504918745,0.06386588458046316,0.011031681624054908
2024-10-23 10:49:05.221783,0.02137535815106239,0.07370557994097471,-0.015896657311916352
2024-10-23 10:49:05.231790,0.03919416089828592,0.05436301995888352,-0.004966097974777222
2024-10-23 10:49:05.241797,0.02213053759965114,0.06195566704496741,0.0011702128231525421
2024-10-23 10:49:05.251804,0.03548161578171421,0.06050444532334804,-0.00017769465446472167
2024-10-23 10:49:05.261812,0.02553979348728899,0.061168864048831165,-0.02037701759636402
2024-10-23 10:49:05.271819,0.010242768869223073,0.05218786787688732,-0.00870586902499199
2024-10-23 10:49:05.281826,0.017687860710779203,0.05270641185827553,0.00955284124314785
2024-10-23 10:49:05.291833,0.011618979992717503,0.0597770808968693,-0.004514262554049492
2024-10-23 10:49:05.301840,0.016227478435169904,0.05773589392546564,-0.013189736440777778
2024-10-23 10:49:05.311847,0.03377118600148242,0.05224368971735239,-0.00615910715162754
2024-10-23 10:49:05.321855,0.02664081809832714,0.05175776936393231,-0.008403086686134337
2024-10-23 10:49:05.331862,0.016989763477980157,0.05607563256304711,-0.014987141251564026
2024-10-23 10:49:05.341869,0.01414095448469743,0.05466963822264224,0.01000467666387558
2024-10-23 10:49:05.351876,0.01809483864305075,0.060118843539245424,-0.009893617504835129
2024-10-23 10:49:05.361883,0.014116345199826172,0.05854092669803649,-0.010793196693062782
2024-10-23 10:49:05.371890,0.012260428834566846,0.05565046595353633,-0.010193477234244346
2024-10-23 10:49:05.381898,0.00700922574151773,0.05180727106146514,-0.0007616320222616196
2024-10-23 10:49:05.391905,0.04373985063706059,0.0606189385484904,0.0044756841093301775
2024-10-23 10:49:05.401913,0.03116899044672027,0.05057250510212034,-0.0019581483304500578
2024-10-23 10:49:05.411919,0.03248884544020984,0.0535811488661915,-0.0016530279040336607
2024-10-23 10:49:05.421926,0.0222030776794767,0.06274400441106409,-0.019006898286938665
2024-10-23 10:49:05.431933,0.02582716819446068,0.06562072889115661,-0.01630932976603508
2024-10-23 10:49:05.441941,0.024787244387203825,0.05599697783626616,-0.011519172880053519
2024-10-23 10:49:05.451948,0.014614092988357879,0.06354443407375365,-0.0029874913781881333
2024-10-23 10:49:05.461955,0.02916981141956057,0.05123104207608849,-0.006128127491474151
2024-10-23 10:49:05.471962,0.027459632801078257,0.06537314733825624,0.0022486557096242903
2024-10-23 10:49:05.481969,0.019029096419014967,0.0647248394973576,0.010335516053438186
2024-10-23 10:49:05.491976,0.009049545063241385,0.060229500839486715,-0.0026771102547645566
2024-10-23 10:49:05.501984,0.035664826861512844,0.05344689149465411,-0.008510054191946982
2024-10-23 10:49:05.511991,0.027045151982363312,0.047977045248821376,-0.017186112600564955
2024-10-23 10:49:05.521998,0.037368735569412816,0.05645896932482719,-0.014340075519680976
2024-10-23 10:49:05.532005,0.015077006925526075,0.06875804053619504,-0.010744681376218795
2024-10-23 10:49:05.542011,0.021398716193763538,0.06081888156738132,-0.0053583121627569195
2024-10-23 10:49:05.552019,0.016087873601657338,0.05922408665660769,-0.010447159734368324
2024-10-23 10:49:05.562026,0.04135681882489007,0.06050988868344575,0.0006283610314130782
2024-10-23 10:49:05.572033,0.034652613045088945,0.06533329025190324,-0.016432663884758947
2024-10-23 10:49:05.582041,0.00996062745959498,0.06144885003399104,-0.0026607436418533323
2024-10-23 10:49:05.592048,0.0044235337969847025,0.06218702811542898,-0.006546645164489746
2024-10-23 10:49:05.602055,0.027155649452400392,0.06033708939980715,-0.012072130587697029
2024-10-23 10:49:05.612062,0.029127086522686294,0.0528621138766408,-0.005333762243390083
2024-10-23 10:49:05.622069,0.027507992854295296,0.04692212936840951,-0.00907177972793579
2024-10-23 10:49:05.632077,0.03052487015717197,0.055178172266669566,-0.011162614527344702
2024-10-23 10:49:05.642084,0.023909338174667207,0.05386818564664572,0.009935118559002875
2024-10-23 10:49:05.652091,0.03141789630702697,0.05541508629508316,-0.007568973949551582
2024-10-23 10:49:05.662098,0.029775924086547455,0.04391633514855057,0.002162146469950676
2024-10-23 10:49:05.672105,0.029896659822808577,0.04929828391522169,0.002461421677470207
2024-10-23 10:49:05.682112,0.0178330550348619,0.07123491551112383,0.00589899491071701
2024-10-23 10:49:05.692120,0.031838039681548254,0.05419540830701589,-0.0020306290447711945
2024-10-23 10:49:05.702127,0.039183781068166716,0.045687071148119866,-0.006819032365083694
2024-10-23 10:49:05.712134,0.025832383225695227,0.0556543384110555,-0.01968552820086479
2024-10-23 10:49:05.722141,0.03293056589229963,0.047740752274915574,0.0035176527321338653
2024-10-23 10:49:05.732148,0.027574829279119147,0.059548861631564795,0.0044148938328027725
2024-10-23 10:49:05.742155,0.028461220192210746,0.04117054357174784,-0.011447861209511757
2024-10-23 10:49:05.752163,0.03198748548906296,0.05832560344692319,-0.0205740014731884
2024-10-23 10:49:05.762170,0.016325079891015774,0.05473199940174818,-0.0068014967083930965
2024-10-23 10:49:05.772177,0.024721458275150505,0.04400415956247598,-0.016374796217679975
2024-10-23 10:49:05.782184,0.044720577903254885,0.04861212828196585,-0.014577391406893729
2024-10-23 10:49:05.792191,0.03924710122849792,0.05476422117091715,-0.007843699237704277
2024-10-23 10:49:05.802198,0.040369273658841846,0.05137443260215223,-0.014275193589925765
2024-10-23 10:49:05.812206,0.0347930124630453,0.05395232026614248,-0.002001402950286865
2024-10-23 10:49:05.822213,0.026057419586647302,0.05682707198485732,9.118541479110717e-05
2024-10-23 10:49:05.832220,0.02430470786753576,0.04157346181683242,-0.0076899699807167045
2024-10-23 10:49:05.842227,0.03579649041716475,0.056620553094707426,0.0012958850294351577
2024-10-23 10:49:05.852234,0.016495244259573518,0.0645466699188575,-0.003786532801389694
2024-10-23 10:49:05.862241,0.029352803303650577,0.05544343560673296,-0.008569675424695014
2024-10-23 10:49:05.872249,0.01957238668259233,0.052160724141635,0.00025952771902084347
2024-10-23 10:49:05.882256,0.005871225554379634,0.04566690514292568,0.0014577975928783415
2024-10-23 10:49:05.892263,0.02308682454433292,0.05987940876018256,0.0035533085674047467
2024-10-23 10:49:05.902270,0.021984224464138967,0.06022394788153469,-0.008115501916408538
2024-10-23 10:49:05.912277,0.032026333361840804,0.05222041843961924,-0.004820552024245262
2024-10-23 10:49:05.922285,0.028737429617973972,0.04763316371459514,0.003712298521399498
2024-10-23 10:49:05.932292,0.016294990713428704,0.061113517132401464,-0.004517185163497924
2024-10-23 10:49:05.942299,0.02589774464606307,0.04816949908100068,-0.010056699112057685
2024-10-23 10:49:05.952306,0.03556739893560298,0.054034299461171026,-0.009607786300778388
2024-10-23 10:49:05.962313,0.025516604407946578,0.04636942738909274,-0.009457564175128936
2024-10-23 10:49:05.972320,0.01521635146413464,0.06178520584888756,-0.00047989247143268585
2024-10-23 10:49:05.982327,0.02016522430947516,0.05764777725059539,-0.008262801432609558
2024-10-23 10:49:05.992335,0.016177510946756228,0.057879540179856116,-0.0013823942691087723
2024-10-23 10:49:06.002342,0.02543393109317403,0.06189107737615704,-0.0003337619990110397
2024-10-23 10:49:06.012349,0.01741344138330314,0.052840815360285336,-0.015000585255026816
2024-10-23 10:49:06.022356,0.03853121261068154,0.0381823215411976,-0.00917114844918251
2024-10-23 10:49:06.032363,0.02184793496571947,0.04481182268355041,-0.010214520022273063
2024-10-23 10:49:06.042371,0.027101608577067962,0.05760748177282512,0.008642740660905838
2024-10-23 10:49:06.052378,0.026445660852408036,0.041177557834424075,-0.006167874979972839
2024-10-23 10:49:06.062385,0.03125158156310208,0.049514155155606566,-0.0090104049295187
2024-10-23 10:49:06.072392,0.02838882624285761,0.05039101105537265,-0.001672317126393318
2024-10-23 10:49:06.082399,0.026676674862997605,0.04588219186142087,-0.014236030623316765
2024-10-23 10:49:06.092406,0.024099376287474297,0.0675845763100311,-0.013043605968356131
2024-10-23 10:49:06.102414,0.033602861963561735,0.05475928926747292,-0.023365678018331525
2024-10-23 10:49:06.112421,0.01741258743335493,0.05195628761071711,0.011502806267142295
2024-10-23 10:49:06.122428,0.02540205638387706,0.04353420396316796,-0.01004383963048458
2024-10-23 10:49:06.132435,0.0256959110641852,0.051777241249382495,0.00372223539352417
2024-10-23 10:49:06.142442,0.007187888510362245,0.06354918331410736,-0.0003162263423204422
2024-10-23 10:49:06.152449,0.021151600431744008,0.05563906777668744,-0.011384148323535919
2024-10-23 10:49:06.162457,0.029569729423383248,0.046958479323424396,-0.02141103681921959
2024-10-23 10:49:06.172464,0.022484301207074894,0.056622379725612695,0.0013303718209266662
2024-10-23 10:49:06.182471,0.009888621669309212,0.05988320815246552,-0.010789105039834976
2024-10-23 10:49:06.192478,0.009202566500753163,0.05269515981189906,-0.008090951997041702
2024-10-23 10:49:06.202485,0.02566018216367811,0.04545143576133996,-0.009286883783340454
2024-10-23 10:49:06.212492,0.04187296991979238,0.0627305238749832,-0.008984101444482803
2024-10-23 10:49:06.222500,0.0458604732199572,0.0564698195124045,-0.0029991818159818646
2024-10-23 10:49:06.232507,0.02143175538026262,0.04901292763520032,-0.015718378135561942
2024-10-23 10:49:06.242514,0.020698148442665112,0.04400912799853831,-0.019162965631484983
2024-10-23 10:49:06.252521,0.02385785914917942,0.05242715652547776,-0.012281973946094512
2024-10-23 10:49:06.262528,0.03024740492266137,0.052046961568854744,-0.010633037695288658
2024-10-23 10:49:06.272535,0.021869585108524187,0.05311305643040687,-0.006588146218657494
2024-10-23 10:49:06.282543,0.0215630992755061,0.03466528986357152,-0.0052390696972608565
2024-10-23 10:49:06.292550,0.02094186667120084,0.05309120992477983,-0.009423661905527115
2024-10-23 10:49:06.302557,0.016925881628645584,0.0545883531473577,-0.00433656789958477
2024-10-23 10:49:06.312564,0.006810355868283659,0.055294382524862885,-0.009279284998774527
2024-10-23 10:49:06.322571,0.008834934198181144,0.04730002277009189,-0.01227028350830078
2024-10-23 10:49:06.332578,0.025722616408020257,0.05261917196623981,0.001647182685136795
2024-10-23 10:49:06.342586,0.027456134802894664,0.04900996849313378,0.008231821772456169
2024-10-23 10:49:06.352593,0.018840300415223464,0.054924928157962856,0.00030278233885765074
2024-10-23 10:49:06.362600,0.01928310314612463,0.05493592447601259,-0.0038823943912982936
2024-10-23 10:49:06.372607,0.02861979458767455,0.0530862780213356,-0.007622165441513061
2024-10-23 10:49:06.382614,0.03356311904164031,0.05220028896704316,-0.003731587743759155
2024-10-23 10:49:06.392621,0.028902598151005803,0.06495525071974843,-0.0044815293282270425
2024-10-23 10:49:06.402629,0.015814399555674753,0.05288816163334995,-0.004178162467479705
2024-10-23 10:49:06.412636,0.012072605511732398,0.056621502942778165,-0.010014029014110564
2024-10-23 10:49:06.422643,0.027524852657550943,0.056618324605003,0.0019563947647809983
2024-10-23 10:49:06.432650,0.01599680235129781,0.05738276963885873,-0.010613748472929
2024-10-23 10:49:06.442657,0.029257412071200087,0.04271919778585434,-0.014953238981962203
2024-10-23 10:49:06.452664,0.018238279401464386,0.040116577539406714,0.004047814086079597
2024-10-23 10:49:06.462672,0.03617379929695744,0.049893765590339895,-0.017347440642118454
2024-10-23 10:49:06.472679,0.036546829293854534,0.05681918093934655,-0.01061550203859806
2024-10-23 10:49:06.482686,0.01943686893573031,0.05602255066893994,-0.013307809862494469
2024-10-23 10:49:06.492693,0.021475900482665747,0.05772467841170728,-0.010167758271098136
2024-10-23 10:49:06.502700,0.02699621654041111,0.06261840527001768,-0.01345803198814392
2024-10-23 10:49:06.512707,0.02359760077779647,0.03785878867525607,-0.013760814327001571
2024-10-23 10:49:06.522715,0.019113847526442258,0.03978687066100538,0.00180208098590374
2024-10-23 10:49:06.532722,0.01737309567318298,0.0478023462690413,-0.0008890577942132949
2024-10-23 10:49:06.542729,0.027836973646911792,0.04734883034788072,-0.016003040295839308
2024-10-23 10:49:06.552736,0.0340996599040227,0.045204804056510325,-0.0065747022151947014
2024-10-23 10:49:06.562743,0.03078429284491576,0.046677068566158414,-0.01555120487511158
2024-10-23 10:49:06.572750,0.01959832027486991,0.047911213470995424,-0.0154021517932415
2024-10-23 10:49:06.582758,0.032858701665909026,0.04862491469830274,-0.013750292932987213
2024-10-23 10:49:06.592765,0.02044911928477231,0.05109090295303613,-0.011653612914681434
2024-10-23 10:49:06.602772,0.019585081767383963,0.03839176304079592,-0.004921674311161041
2024-10-23 10:49:06.612779,0.023241229654755443,0.05221713050398975,0.0010679214924573899
2024-10-23 10:49:06.622786,0.02673218617620878,0.05484291243031621,0.009155366358160971
2024-10-23 10:49:06.632794,0.022565732412831857,0.04024941013883799,-0.00041910219490528107
2024-10-23 10:49:06.642801,0.02846832578643225,0.0523133208874613,-0.002063362270593643
2024-10-23 10:49:06.652808,0.035447284253849645,0.054022755153849716,0.0055704936087131495
2024-10-23 10:49:06.662815,0.01549498117584735,0.048825040380284186,-0.01387888774871826
2024-10-23 10:49:06.672822,0.03658791022291407,0.04080408487953245,-0.01357610540986061
2024-10-23 10:49:06.682829,0.031850648001371884,0.05157631184980273,-0.0032516952723264693
2024-10-23 10:49:06.692837,0.03600250698381569,0.04946567637138068,-0.019417817175388336
2024-10-23 10:49:06.702844,0.01902408688375726,0.054233219566754996,-0.007895137163996696
2024-10-23 10:49:06.712851,0.02477799250166863,0.05561108379121869,-0.003557400220632553
2024-10-23 10:49:06.722858,0.024455783943133427,0.030851321065984663,-0.014473346510529518
2024-10-23 10:49:06.732865,0.02619566358013544,0.04551014367863536,-0.003251110750436783
2024-10-23 10:49:06.742872,0.032765406492422336,0.053836475334130225,-0.006841244196891784
2024-10-23 10:49:06.752880,0.02409557232861407,0.05615826934520155,-0.004290975192189217
2024-10-23 10:49:06.762887,0.022490456953225657,0.05180076825544238,0.0057411740005016325
2024-10-23 10:49:06.772894,0.022121258314652368,0.05229249729514122,-0.016108254235982895
2024-10-23 10:49:06.782901,0.029817630636692044,0.04933372055478394,-0.009969605350494385
2024-10-23 10:49:06.792908,0.019626171829598024,0.04543375397417694,-0.005026888251304626
2024-10-23 10:49:06.802915,0.015728246509027665,0.0511534833278507,-0.010265373426675797
2024-10-23 10:49:06.812923,0.0360560546688037,0.055928625307790934,-0.0059247138738632195
2024-10-23 10:49:06.822930,0.02535253185345791,0.06032788318004459,0.015177110865712166
2024-10-23 10:49:06.832937,0.027538191629736683,0.06372786434926092,-0.007412322083115578
2024-10-23 10:49:06.842944,0.013789816659200005,0.056711482781171794,-0.0011176058530807495
2024-10-23 10:49:06.852951,0.02554391253998037,0.05535962978079915,-0.0005190554380416869
2024-10-23 10:49:06.862959,0.028995317935757336,0.044403862937167284,-0.014434183543920516
2024-10-23 10:49:06.872966,0.015251221848116255,0.04772840424999594,-0.010844050097465514
2024-10-23 10:49:06.882973,0.026146728138183244,0.04653546813838184,-0.007851298022270203
2024-10-23 10:49:06.892980,0.020857512855995446,0.04381718562301248,-0.011586977419257164
2024-10-23 10:49:06.902987,0.012459819297608919,0.05061437148246914,0.0039782559812068935
2024-10-23 10:49:06.912995,0.012475249762181192,0.050560668533854186,0.00398059406876564
2024-10-23 10:49:06.923002,0.0349014367070049,0.05287292753159999,-0.010830021572113036
2024-10-23 10:49:06.933009,0.026385888922610318,0.050237500994093715,0.006381809991598129
2024-10-23 10:49:06.943016,0.02525727305174805,0.04885799280181527,0.0036889176458120344
2024-10-23 10:49:06.953023,0.024324513113126157,0.045783626857772465,-0.02010638396143913
2024-10-23 10:49:06.963031,0.011949504288448952,0.05038217016179114,-0.0022989245921373365
2024-10-23 10:49:06.973038,0.010617995389783754,0.06503412464223801,-0.001550152051448822
2024-10-23 10:49:06.983045,0.01600534641735721,0.04023983859289437,-0.014416063365340232
2024-10-23 10:49:06.993052,0.029803497080062514,0.03616236002091318,-0.018300795844197273
2024-10-23 10:49:07.003059,0.020443182734330184,0.0518819072002545,0.0015998364120721816
2024-10-23 10:49:07.013066,0.024299826196441426,0.04848196256365627,0.0051841246396303175
2024-10-23 10:49:07.023074,0.02721952216858044,0.059389835144951934,-0.010078910943865775
2024-10-23 10:49:07.033081,0.034467392671294506,0.04745254645068198,-0.009486205747723579
2024-10-23 10:49:07.043088,0.009531515327328816,0.04266297408659011,-0.005895487779378891
2024-10-23 10:49:07.053095,0.012202912793937138,0.047923634561151264,0.0035357729107141495
2024-10-23 10:49:07.063102,0.03242573077585548,0.04167063858099281,-0.011579378634691238
2024-10-23 10:49:07.073109,0.017541177682508714,0.03936842605322599,-0.004244797962903976
2024-10-23 10:49:07.083117,0.02521562586710788,0.039485914953052995,0.005488660544157028
2024-10-23 10:49:07.093124,0.008723833939945325,0.04872092241868376,-0.008276829957962036
2024-10-23 10:49:07.103131,0.016586059781606308,0.043095556817576285,0.013871873486042022
2024-10-23 10:49:07.113138,0.016051217685965822,0.05368548602350056,-0.007380173379182815
2024-10-23 10:49:07.123145,0.027761218696692957,0.05433054246138781,-0.016354337951540947
2024-10-23 10:49:07.133152,0.027106111222249454,0.05079966492149979,0.00818856715261936
2024-10-23 10:49:07.143160,0.04380671446134802,0.036309696069732306,-0.012606968116760254
2024-10-23 10:49:07.153167,0.01665414744860027,0.03422101669479161,-0.012003741526603698
2024-10-23 10:49:07.163174,0.009952645082538947,0.05353237782102078,-0.004362871384620666
2024-10-23 10:49:07.173181,0.030383077933150343,0.044926498571783303,-0.0022650223225355146
2024-10-23 10:49:07.183188,0.019048084247275256,0.04144424594659358,0.006570610561966896
2024-10-23 10:49:07.193196,0.024713238436076788,0.048767282311059534,-0.01168517709672451
2024-10-23 10:49:07.203203,0.0359840032127453,0.057684821325354275,-0.01647182685136795
2024-10-23 10:49:07.213210,0.018543345028953627,0.061752837949246166,-0.004946224230527877
2024-10-23 10:49:07.223217,0.022637345477472988,0.056634033630788325,-0.00599310293495655
2024-10-23 10:49:07.233224,0.030359363697422665,0.05040467425454408,-0.0003045359045267105
2024-10-23 10:49:07.243231,0.0273276039192453,0.04067826654277742,-0.01331774673461914
2024-10-23 10:49:07.253239,0.025449370690900832,0.05724672216903418,0.0013473229557275771
2024-10-23 10:49:07.263246,0.023551304817502384,0.04588500487301499,-0.006888590469956398
2024-10-23 10:49:07.273253,0.02210606987867504,0.04939743344075977,-0.003144727766513824
2024-10-23 10:49:07.283260,0.01643239445670042,0.04283350834790617,-0.007181435936689376
2024-10-23 10:49:07.293267,0.014177852428983896,0.06062620853949338,-0.003734510353207588
2024-10-23 10:49:07.303274,0.025381447420688343,0.03531228253021836,-0.005673369461297989
2024-10-23 10:49:07.313281,0.02583671234094072,0.04398950998261571,0.0022626842349767686
2024-10-23 10:49:07.323288,0.020169859385397285,0.05210596174709498,-0.005669277808070182
2024-10-23 10:49:07.333296,0.016013931582611985,0.04563322206903249,-0.0010346037447452544
2024-10-23 10:49:07.343303,0.017116773691400886,0.045030178141966457,-0.006720248165726661
2024-10-23 10:49:07.353310,0.015678142023296093,0.04961871150862425,-0.027213001096248624
2024-10-23 10:49:07.363317,0.006547645244910381,0.04885916184559464,-0.01105681606531143
2024-10-23 10:49:07.373324,0.021367074379906988,0.04544818435832858,-0.003127192109823227
2024-10-23 10:49:07.383332,0.02384206335842609,0.04199884762205183,-0.007166822889447212
2024-10-23 10:49:07.393339,0.01721585015170276,0.041376441407389934,-0.005070142871141433
2024-10-23 10:49:07.403346,0.02110364223732613,0.037314964122138916,0.010498013138771056
2024-10-23 10:49:07.413353,0.007699582625855691,0.04488850464895367,-0.00566109450161457
2024-10-23 10:49:07.423360,0.030481085814372633,0.05282605618257075,0.0030178865164518353
2024-10-23 10:49:07.433367,0.027658954765461385,0.05795278807915747,-0.018676643419265747
2024-10-23 10:49:07.443375,0.01712428571099881,0.03830375596377998,0.00017886369824409484
2024-10-23 10:49:07.453382,0.02804893589715939,0.03526921057347208,-0.0025198738664388657
2024-10-23 10:49:07.463389,0.01608649906190112,0.05847776180133223,-0.009853285494446754
2024-10-23 10:49:07.473396,0.014093087621824815,0.038061215912178155,-0.0010229133069515229
2024-10-23 10:49:07.483403,0.02179815014039632,0.04393858351297676,-0.012546762362122535
2024-10-23 10:49:07.493411,0.030267904287995768,0.04560205974578857,-0.00940554172694683
2024-10-23 10:49:07.503418,0.01866670198056381,0.05998524375483393,-0.009406710770726204
2024-10-23 10:49:07.513425,0.023415805336949414,0.04123685027360916,-0.01480301685631275
2024-10-23 10:49:07.523432,0.009847545306826942,0.03724215461425483,-0.01645136858522892
2024-10-23 10:49:07.533439,0.009102348396135494,0.04075505810603499,-0.009415478599071502
2024-10-23 10:49:07.543446,0.026393277644622137,0.05336290300562978,-0.010315057787299155
2024-10-23 10:49:07.553454,0.019910235768253914,0.04377889943923801,-0.007922025170922279
2024-10-23 10:49:07.563461,0.02352556302146986,0.030818843568488952,-0.0008855506628751755
2024-10-23 10:49:07.573468,0.012588021387695334,0.042925972404330964,-0.0007359130591154098
2024-10-23 10:49:07.583475,0.030189879748877137,0.04629351260866969,-0.026470073774456978
2024-10-23 10:49:07.593482,0.022805706048011777,0.06591207652054727,0.0009124386698007583
2024-10-23 10:49:07.603489,0.0066112302667228505,0.04079575544260442,-0.014795418071746825
2024-10-23 10:49:07.613497,0.0190164059008006,0.0656740665135905,-0.02436930210292339
2024-10-23 10:49:07.623504,0.017469295189809053,0.04434921014048159,-0.00925999577641487
2024-10-23 10:49:07.633511,0.022847006172779946,0.039844884458556766,-0.017490648505091667
2024-10-23 10:49:07.643518,0.012974230526573956,0.04851235770191997,-0.0022217677026987073
2024-10-23 10:49:07.653525,0.01660718476802576,0.04386734490767121,0.004362871384620666
2024-10-23 10:49:07.663533,0.027101914537744597,0.05814820105340331,-0.01434299812912941
2024-10-23 10:49:07.673540,0.02530058703708928,0.05092409501876682,0.00016775778234004974
2024-10-23 10:49:07.683547,0.031573013803502546,0.049506556371040636,-0.01569149012863636
2024-10-23 10:49:07.693554,0.030844128706795162,0.044968912941403684,0.006755319479107857
2024-10-23 10:49:07.703561,0.009384841432212852,0.04658285094406456,-0.00042670097947120663
2024-10-23 10:49:07.713568,0.024081831497629172,0.04745901272408664,-0.007758359041810035
2024-10-23 10:49:07.723576,0.019228222020575777,0.04666643757428974,0.009151859226822852
2024-10-23 10:49:07.733583,0.019920158940646797,0.06725592887755483,-0.0050660512179136275
2024-10-23 10:49:07.743590,0.038656871117232365,0.0518798613736406,-0.006264905613660812
2024-10-23 10:49:07.753597,0.02970321504336316,0.033022016168572005,0.0009217910200357436
2024-10-23 10:49:07.763604,0.02283020573502872,0.04127952037155628,-0.012991583520174026
2024-10-23 10:49:07.773611,0.00975780749702826,0.050053632327169174,0.006313420930504798
2024-10-23 10:49:07.783619,0.011643602977320552,0.04076963462065905,0.006164952370524406
2024-10-23 10:49:07.793626,0.02275608105289284,0.046789369834214445,-0.020167174237966535
2024-10-23 10:49:07.803633,0.015371089934697374,0.05553557086959481,-0.022558453288674354
2024-10-23 10:49:07.813640,0.017529491811292246,0.06036087213419378,-0.0077402388632297515
2024-10-23 10:49:07.823647,0.03648818987521808,0.04237827539369464,0.0015378770917654036
2024-10-23 10:49:07.833655,0.022359300287649965,0.0439597358988598,-0.025393968975543975
2024-10-23 10:49:07.843662,0.0335604658602504,0.06101042208410799,-0.014326046994328498
2024-10-23 10:49:07.853669,0.01224769721715711,0.049989371451921755,0.016797405543923376
2024-10-23 10:49:07.863676,0.03405622718767263,0.04178856587223708,-0.002508183428645134
2024-10-23 10:49:07.873683,0.02611571194541175,0.04557301631439477,-0.011039864930510521
2024-10-23 10:49:07.883690,0.016515812123566866,0.046879349672608074,-0.01013970122039318
2024-10-23 10:49:07.893698,0.017669306707358917,0.044599495107121766,-0.014483867904543877
2024-10-23 10:49:07.903705,0.030858075033756902,0.05234718662444502,-0.0028109657675027848
2024-10-23 10:49:07.913712,0.03073506514201872,0.04414192406535148,-0.007001403194665908
2024-10-23 10:49:07.923719,0.009888457272527738,0.03867401404827833,-0.0177723880559206
2024-10-23 10:49:07.933726,0.011842308453773147,0.036224757732637225,-0.012084405547380446
2024-10-23 10:49:07.943734,0.011209417377715,0.04049392295181751,-0.0025105215162038804
2024-10-23 10:49:07.953741,0.011284775035711936,0.0509354566629976,-0.0020610241830348965
2024-10-23 10:49:07.963748,0.01530144506485667,0.04882788992449641,-0.001911386579275131
2024-10-23 10:49:07.973755,0.01992834224710241,0.03926514834184199,0.0019786065965890884
2024-10-23 10:49:07.983762,0.006070611450844444,0.03865633226111531,-0.00355272404551506
2024-10-23 10:49:07.993769,0.013760435301088727,0.04513013138510286,-0.005199906730651855
2024-10-23 10:49:08.003777,0.007193235972337424,0.05153974269907921,-0.011928338202834128
2024-10-23 10:49:08.013784,0.025517362459772264,0.030130459445528685,-0.007888707423210144
2024-10-23 10:49:08.023791,0.015403677030047401,0.03956285264678299,-0.007290741530060768
2024-10-23 10:49:08.033798,0.0285144025510177,0.04113945431374013,0.010063128852844237
2024-10-23 10:49:08.043805,0.028546587787568568,0.03642868280690163,-0.006844751328229904
2024-10-23 10:49:08.053812,0.023698289239872244,0.03864562820401043,-0.0023550386935472485
2024-10-23 10:49:08.063820,0.011152750720456243,0.03655786214452237,-0.002050502789020538
2024-10-23 10:49:08.073827,0.02032188530906569,0.053430524881742894,-0.012523381486535071
2024-10-23 10:49:08.083834,0.019534063966199753,0.04037340184468776,-0.004892448216676712
2024-10-23 10:49:08.093841,0.02973401204042602,0.045449791793525214,-0.00609071809053421
2024-10-23 10:49:08.103848,0.015903689840901642,0.052457003674469885,-0.00968085153698921
2024-10-23 10:49:08.113856,0.009536415264732204,0.03088807287979871,-0.014617723417282104
2024-10-23 10:49:08.123863,0.016352209926536306,0.04474909617826342,-0.006685176852345466
2024-10-23 10:49:08.133870,0.008496509723784402,0.04185454378053546,-0.007127659922838211
2024-10-23 10:49:08.143877,0.005115397651819512,0.03377338252514601,-0.011612696382403373
2024-10-23 10:49:08.153884,0.021770947039639575,0.03646715165376663,-0.0024789573341608044
2024-10-23 10:49:08.163891,0.00948814654306043,0.047144576480053366,-0.013249942195415495
2024-10-23 10:49:08.173899,0.020750581882800906,0.06130312142036855,-0.009509002101421356
2024-10-23 10:49:08.183906,0.02942664485799614,0.04568246803823858,-0.0005284077882766723
2024-10-23 10:49:08.193913,0.011366589833959006,0.05116718305964023,0.007103694525361061
2024-10-23 10:49:08.203920,0.014196853956975973,0.043142464699223636,-0.004565700480341911
2024-10-23 10:49:08.213927,0.013059808184485882,0.0502002742562443,-0.007709843724966049
2024-10-23 10:49:08.223935,0.023988280595815738,0.04672145569715649,-0.007259761869907379
2024-10-23 10:49:08.233942,0.008660477246996015,0.03861819220781326,-0.019528291812539098
2024-10-23 10:49:08.243949,0.012085145332897082,0.03794453072994947,0.008306640574336051
2024-10-23 10:49:08.253956,0.03215781425440218,0.036995011452771724,-0.0027647885382175445
2024-10-23 10:49:08.263963,0.004285477033164352,0.05064049230441451,-0.017569558960199357
2024-10-23 10:49:08.273970,0.014576478091441095,0.0468396752493456,-0.006489362019300461
2024-10-23 10:49:08.283978,0.01967415285690222,0.04902483726870268,-0.01112228251695633
2024-10-23 10:49:08.293985,0.01692111868856009,0.038850868452526624,0.007437456524372101
2024-10-23 10:49:08.303992,0.0011922602581791578,0.022469825157150625,-0.018597148442268372
2024-10-23 10:49:08.313999,0.01678055030724499,0.044037148516625164,-0.017250994530320165
2024-10-23 10:49:08.324006,0.016298315181676296,0.050707127799838776,-0.0003349310427904129
2024-10-23 10:49:08.334014,0.025294947314169255,0.04718428743593395,-0.004521861338615417
2024-10-23 10:49:08.344021,-0.010622077909857034,0.05695661664865911,-0.015890812093019485
2024-10-23 10:49:08.354028,0.02544791851933114,0.04563029945958406,-0.009154781836271286
2024-10-23 10:49:08.364035,0.014594525204785167,0.034693091185949744,-0.010800795477628708
2024-10-23 10:49:08.374042,0.015742243068339302,0.035902284312620755,-0.030099370187520978
2024-10-23 10:49:08.384049,-0.010921092822472564,0.049446460214257235,0.0049181671798229215
2024-10-23 10:49:08.394057,0.009207630834938026,0.0507066163431853,-0.005554126995801926
2024-10-23 10:49:08.404064,0.018755193114769645,0.054309901532158256,-0.0034597850650548933
2024-10-23 10:49:08.414071,0.008630579865654,0.04171334521155804,-0.006003624328970909
2024-10-23 10:49:08.424078,-0.0004088182629086077,0.04292999099232256,-0.004656885895133018
2024-10-23 10:49:08.434085,0.00829660323751159,0.04482344005610794,-0.019763269612193105
2024-10-23 10:49:08.444093,0.032214028820511886,0.04273994831293821,0.0038841479569673536
2024-10-23 10:49:08.454100,0.027564659511554054,0.05163165876623243,0.012121814948320387
2024-10-23 10:49:08.464107,0.029123378461948596,0.0389330303106457,-0.017201894691586492
2024-10-23 10:49:08.474114,0.03358976501997094,0.030943931252881883,-0.00044072950482368465
2024-10-23 10:49:08.484121,0.010736954727489501,0.05263046054523438,-0.012106617379188537
2024-10-23 10:49:08.494128,0.017305145003506914,0.04075045499615371,-0.019137831190228462
2024-10-23 10:49:08.504136,0.02287879868368618,0.0327559856435284,-0.006711480337381362
2024-10-23 10:49:08.514143,0.031068470948003232,0.04267228990420699,-0.010149638092517852
2024-10-23 10:49:08.524150,0.021730889023886993,0.03562704756781459,-0.0053653264254331584
2024-10-23 10:49:08.534157,0.0010720770777668802,0.03216357270833105,-0.020472879186272618
2024-10-23 10:49:08.544164,0.016486535796732642,0.044894459465704854,0.004964928930997848
2024-10-23 10:49:08.554172,0.03677887535090558,0.04940963533520698,-0.011501637223362922
2024-10-23 10:49:08.564179,0.02070377903243061,0.03670505206286907,-0.011496376526355743
2024-10-23 10:49:08.574186,0.022881410765880718,0.04189100333340466,-0.004610708665847778
2024-10-23 10:49:08.584193,0.02476305066086352,0.04231167643088847,-0.006854688200354576
2024-10-23 10:49:08.594200,0.029364023383986203,0.0370346858760342,-0.0017658406287431715
2024-10-23 10:49:08.604207,0.020843077905266544,0.03502718197852373,0.0033230069428682326
2024-10-23 10:49:08.614215,0.010215529235848226,0.04543327905014157,0.004371639212965965
2024-10-23 10:49:08.624222,0.029833243764354846,0.043943588481657206,0.0006342062503099441
2024-10-23 10:49:08.634229,0.00689930366021581,0.029089535557851192,-0.004154197070002556
2024-10-23 10:49:08.644236,0.019694720720895564,0.04001351902373135,-0.002653144857287407
2024-10-23 10:49:08.654243,0.031034810706996357,0.049481020070984955,0.008727496334910392
2024-10-23 10:49:08.664251,0.014259046172723173,0.04817596535440534,-0.007878770551085471
2024-10-23 10:49:08.674258,0.006024018663028255,0.042160394859313964,-0.008775427129864692
2024-10-23 10:49:08.684265,0.018691119469190016,0.037429493879899384,0.009928104296326637
2024-10-23 10:49:08.694272,0.011591466364706865,0.053796289454214274,0.0005038578689098358
2024-10-23 10:49:08.704279,0.01489132989400532,0.04061579576581716,-0.012210077753663062
2024-10-23 10:49:08.714286,0.024647114397305995,0.03548212267179042,-0.016847089904546735
2024-10-23 10:49:08.724294,0.022125066840089858,0.04648552804943174,-0.002329319730401039
2024-10-23 10:49:08.734301,0.00597080433818046,0.03740026778541505,-0.013104980766773223
2024-10-23 10:49:08.744308,0.019497490248898974,0.03838124164678156,-0.0075707275152206415
2024-10-23 10:49:08.754315,0.013132298031961545,0.03439067417327314,-0.007423427999019622
2024-10-23 10:49:08.764322,0.023952190935704856,0.038006307387165726,-0.006976268753409385
2024-10-23 10:49:08.774330,0.0321368171321461,0.04918371762484312,-0.005927636483311653
2024-10-23 10:49:08.784337,0.006517560633900575,0.04252765726912766,-0.01430500420629978
2024-10-23 10:49:08.794344,0.01022015061203856,0.045219380571134386,-0.02208499055802822
2024-10-23 10:49:08.804351,0.0016509501113789154,0.0513499922806397,0.007992752319574355
2024-10-23 10:49:08.814358,0.005298389535909518,0.05246708667706698,0.003806406545639038
2024-10-23 10:49:08.824364,0.03509668985104654,0.055457427599467334,-0.007570142993330955
2024-10-23 10:49:08.834373,0.010708628248726017,0.037993374840356406,-0.0003875380128622055
2024-10-23 10:49:08.844380,0.018168693897128104,0.03812386935222894,-0.0026315175473690033
2024-10-23 10:49:08.854387,0.006344286426226608,0.03804064804818481,-0.005028057295084
2024-10-23 10:49:08.864394,0.012328548467601648,0.050013263784162695,-0.011607435685396194
2024-10-23 10:49:08.874401,0.00883177869329229,0.03862681390568614,-0.015497428861260413
2024-10-23 10:49:08.884409,0.01349257814513985,0.040873752582259476,0.005151391413807869
2024-10-23 10:49:08.894416,0.015022902118111959,0.037814657272584734,0.002010170778632164
2024-10-23 10:49:08.904423,0.032649305832083336,0.03533135255686939,-0.01250292322039604
2024-10-23 10:49:08.914430,0.01497271543398965,0.03004643442388624,-0.005912438914179801
2024-10-23 10:49:08.924437,0.01510768062500283,0.027731727740727363,-0.0044137247890233995
2024-10-23 10:49:08.934444,0.009956462741130963,0.025523842432908714,-0.0023141221612691877
2024-10-23 10:49:08.944452,0.003449167772918008,0.05272950047291815,-0.005001169288158416
2024-10-23 10:49:08.954459,0.013479170674295163,0.04309314566478133,0.025831191349029538
2024-10-23 10:49:08.964466,0.022845106476638465,0.03875920811370015,-0.03731120126247406
2024-10-23 10:49:08.974473,0.03642983815094922,0.03661474343091249,-0.024286299994587895
2024-10-23 10:49:08.984480,0.008295557491318321,0.03858370541632175,0.04619184233248234
2024-10-23 10:49:08.994488,0.008930229532509111,0.04355188575033098,-0.02324702007472515
2024-10-23 10:49:09.004495,0.00984591960532125,0.04768642827179283,-0.05406476766467094
2024-10-23 10:49:09.014502,0.02109389716144651,0.03742909202110022,0.03632277474701404
2024-10-23 10:49:09.024509,0.007565443985327146,0.05156907839141786,-0.030413258442282674
2024-10-23 10:49:09.034516,0.022853244117321446,0.024718407801538705,-0.030854572468996047
2024-10-23 10:49:09.044524,0.025129029862466266,0.032860103605128824,0.032744331738352776
2024-10-23 10:49:09.054531,0.014075825959770008,0.042917168043367565,-0.022321721923351287
2024-10-23 10:49:09.064538,0.010615365041280165,0.019184081484749912,-0.0046545478075742715
2024-10-23 10:49:09.074545,0.030180691795423625,-0.07828457829430699,0.009864391410350799
2024-10-23 10:49:09.084552,0.08135803092289716,-0.3845679840754717,-0.019625322446227073
2024-10-23 10:49:09.094559,0.37578134143184866,-0.895954933315888,0.024804770910739897
2024-10-23 10:49:09.104567,0.7180904021769762,-1.3347504744023084,0.015043255352973937
2024-10-23 10:49:09.114574,0.6093647275853902,-0.9486321190796791,0.06429390073418617
2024-10-23 10:49:09.124581,0.34252818338852375,-0.5088210442751646,-0.060820087143778796
2024-10-23 10:49:09.134588,-0.05188460148083977,0.007084916759654879,0.04333411481380462
2024-10-23 10:49:09.144595,-0.1970988815061748,0.6147001703292131,0.04384381790161133
2024-10-23 10:49:09.154603,-0.5784081560466439,0.9144044169157743,-0.11039397312998771
2024-10-23 10:49:09.164610,-0.6781243755567818,1.2551814092554152,-0.07283902623951434
2024-10-23 10:49:09.174617,-0.5958814880907535,1.6219731328174471,0.0006149170279502868
2024-10-23 10:49:09.184624,-0.12843053768058307,0.726639911596477,-0.02049859814941883
2024-10-23 10:49:09.194631,-0.1363726831909269,0.4177753302156925,0.01887128920853138
2024-10-23 10:49:09.204639,-0.4446351704927161,0.5788110012264922,-0.05668868642747402
2024-10-23 10:49:09.214646,-0.48980932368263597,0.24735139740630982,0.04374211109280586
2024-10-23 10:49:09.224653,-0.13574986598431132,-0.3311730054311454,-0.08359948970675468
2024-10-23 10:49:09.234660,0.3452909626327455,-0.737676123265177,0.00554302107989788
2024-10-23 10:49:09.244667,0.7709362955711782,-0.5344347934812307,0.10133680644929409
2024-10-23 10:49:09.254674,0.3873232741329819,0.049136334819160396,-0.015034487524628638
2024-10-23 10:49:09.264682,-0.08237740056589245,-0.15939674469735474,0.1425537829786539
2024-10-23 10:49:09.274689,-0.25162706543151286,0.2939235808258876,0.04193593845367431
2024-10-23 10:49:09.284696,-0.573360407670401,0.8023021785631775,0.007470774272084236
2024-10-23 10:49:09.294703,-0.9167799138754605,0.8681455006964505,0.011928922724723815
2024-10-23 10:49:09.304710,-1.0817417088214307,0.517341985187307,-0.012069207978248595
2024-10-23 10:49:09.314718,-0.9566714870199561,0.09758881556000559,-0.019652210453152654
2024-10-23 10:49:09.324725,-0.6986968426600099,-0.19973299286942928,0.007300093880295753
2024-10-23 10:49:09.334732,-0.35447818543389437,-0.28112326382780445,0.013871288964152335
2024-10-23 10:49:09.344739,0.3668749813986942,0.03473649193625897,-0.045452422142028805
2024-10-23 10:49:09.354746,0.7622202704783528,0.3639396951317787,0.015012275692820548
2024-10-23 10:49:09.364753,0.3254367268014699,0.5179541988015175,-0.022015432453155515
2024-10-23 10:49:09.374761,0.0861204230191186,0.5188842827258632,-0.08572071964442729
2024-10-23 10:49:09.384768,0.030525870237592605,0.1775548989341594,-0.019732289952039718
2024-10-23 10:49:09.394775,-0.005611355342064053,-0.06852284354083239,0.04048223251402378
2024-10-23 10:49:09.404782,-0.15227936870651318,-0.509935435257852,0.05955167464315891
2024-10-23 10:49:09.414788,-0.2593205060109496,-0.5741164502020925,0.23230536557435988
2024-10-23 10:49:09.424797,-0.057891595943830906,-0.15918122051684186,0.33078561354875563
2024-10-23 10:49:09.434804,0.2951196222100407,0.266096466419287,-0.27129005300700665
2024-10-23 10:49:09.444811,0.4189851809294894,0.9654814009413123,-2.369760461860895
2024-10-23 10:49:09.454818,-0.004882694007642567,1.2525446310110389,0.7772843494236469
2024-10-23 10:49:09.464825,0.22511888813637196,0.4719058565929532,-0.16667174066901205
2024-10-23 10:49:09.474833,0.4383163062021136,0.06257339708451182,-0.4693354215830564
2024-10-23 10:49:09.484840,0.31171639061532913,-0.12668603210081344,-0.9952858798354863
2024-10-23 10:49:09.494847,0.15716434600278734,-0.7686603865284473,-1.2405302219599486
2024-10-23 10:49:09.504854,0.47200624822750686,-0.7207841713055968,-0.9259072231829166
2024-10-23 10:49:09.514861,0.8158767496030778,-0.22991015926720573,-1.1142974591851234
2024-10-23 10:49:09.524868,1.2231572084851563,0.7249871028881519,-1.022254550781846
2024-10-23 10:49:09.534876,1.5176118639804421,1.4471727384895086,-1.05536946939826
2024-10-23 10:49:09.544883,1.1664952639341353,0.594970510725677,-0.6703454851835966
2024-10-23 10:49:09.554890,0.8002272719852626,-0.3421383072881028,0.33762978035509583
2024-10-23 10:49:09.564897,0.22470395065993068,-1.0172883066765963,1.3807044163256883
2024-10-23 10:49:09.574904,-0.13271277244389057,-0.7343671448476612,1.0100807133853436
2024-10-23 10:49:09.584912,-0.4145867633074522,-0.31017602930553256,0.3851753753840923
2024-10-23 10:49:09.594919,-0.49662733313441276,0.1775153158424422,0.2740460737168789
2024-10-23 10:49:09.604926,-0.45584027245491743,-0.35819567158706483,0.25097382568717
2024-10-23 10:49:09.614933,0.0055599722146987916,-0.6519855795633047,-0.15851590674221513
2024-10-23 10:49:09.624940,0.10279168143272399,-0.45863008583653714,-0.4867863225996494
2024-10-23 10:49:09.634948,0.07856704849749803,-0.36178989668674766,-0.44612347282171244
2024-10-23 10:49:09.644955,0.2227846730351448,-0.13512114875987172,0.11512333973944186
2024-10-23 10:49:09.654962,0.0810343153938651,0.2989439480048604,0.3816372643858194
2024-10-23 10:49:09.664969,-0.048175125104188914,0.2698794372904114,-0.49607203733921046
2024-10-23 10:49:09.674976,-0.30052111592739816,0.10103526621945201,-0.792388979575038
2024-10-23 10:49:09.684983,0.16294658266603945,-0.32680618852376936,-0.917133549618721
2024-10-23 10:49:09.694991,0.5070394215553998,-0.3166848632102832,-1.1625409733504055
2024-10-23 10:49:09.704998,1.0113491258859635,-0.11679585779523476,-1.2416694551229477
2024-10-23 10:49:09.715005,1.4846066893488168,-0.043380260077049024,-1.1128174497604368
2024-10-23 10:49:09.725012,1.426339793819189,-0.2087273965122178,-0.639456425923109
2024-10-23 10:49:09.735019,0.9439981756687164,-0.6649095777399837,-0.5645271494060754
2024-10-23 10:49:09.745027,0.5994663608402013,-0.19854497039495034,-0.9572580547362566
2024-10-23 10:49:09.755034,0.5915677165448665,-0.019459621906944082,-1.0310726480096577
2024-10-23 10:49:09.765041,0.7195745032548904,0.2197291944546625,-0.7027092931717633
2024-10-23 10:49:09.775048,1.0682891567260027,0.15865047464100643,-0.6035878246843814
2024-10-23 10:49:09.785055,1.215916589707136,0.05721761937213596,-0.6320388431429863
2024-10-23 10:49:09.795063,0.7781278145104646,-0.07403303093020804,-0.08103460765480995
2024-10-23 10:49:09.805070,0.8922340861618518,0.125370118063502,-0.18803133956193924
2024-10-23 10:49:09.815077,1.0857833123624323,0.45212691448759285,-0.36255554729700085
2024-10-23 10:49:09.825083,1.8379963488936424,1.0540976228315382,-0.8233090184956788
2024-10-23 10:49:09.835091,1.3595008847773074,0.7034983246576041,-1.0832032327413559
2024-10-23 10:49:09.845098,3.4558325280368325,0.7692355560678988,-0.3491793483734131
2024-10-23 10:49:09.855106,0.4318436030566692,-0.39198059841953214,0.3713584469556808
2024-10-23 10:49:09.865113,0.6361094535827636,0.7868808836780488,0.34983401288986204
2024-10-23 10:49:09.875120,-0.36203766090273853,0.49806858145128935,0.4779939443349838
2024-10-23 10:49:09.885127,-0.6486860265612602,-0.39397162610627706,0.8161147230774164
2024-10-23 10:49:09.895134,-0.44617607979178425,-0.9318849824182689,0.6276306713119149
2024-10-23 10:49:09.905142,0.10011749378740786,-0.6805255184143781,-0.2769204601094127
2024-10-23 10:49:09.915149,-0.10514555108249186,0.38339484864287077,-0.1729921758621931
2024-10-23 10:49:09.925156,0.9317004196316003,0.25575811908794566,0.40921018483564253
2024-10-23 10:49:09.935163,0.5884720886170863,0.16946122525706886,0.5583895234338939
2024-10-23 10:49:09.945170,0.5977385141342878,-0.020773305171262472,0.19635200866162775
2024-10-23 10:49:09.955178,0.6328659416168928,0.09321986149447038,-0.8228005575168877
2024-10-23 10:49:09.965185,0.40916006208360195,0.3250793647311628,-0.568310175076127
2024-10-23 10:49:09.975192,0.5245230557978153,0.23870418149968609,1.7115981664240358
2024-10-23 10:49:09.985199,0.49695057373940943,-0.7565283424470574,1.963474493908882
2024-10-23 10:49:09.995206,0.36567630966603754,-0.9220895645909011,2.667217806303501
2024-10-23 10:49:10.005214,0.3183428960829973,-0.5499432551931589,2.0795406674563885
2024-10-23 10:49:10.015221,0.3202425922244787,-0.4872185765370726,1.6398656401216982
2024-10-23 10:49:10.025228,0.2884638906478882,-0.3976720149941742,1.5480125552020967
2024-10-23 10:49:10.035235,0.2019008749604225,-0.314102847360447,1.4951673924602567
2024-10-23 10:49:10.045242,0.27321020741462704,-0.47757454987913367,1.5009411535561084
2024-10-23 10:49:10.055248,0.3233925806879997,-0.5053489477178081,1.2211189806558191
2024-10-23 10:49:10.065257,0.29627134952843187,-0.23434881756808607,0.7806919659100472
2024-10-23 10:49:10.075264,0.179348266890645,0.07500648820539936,0.2148363443791866
2024-10-23 10:49:10.085270,-0.11812135251164435,0.3575392169723287,-0.07047083580344915
2024-10-23 10:49:10.095278,-0.17982640579640866,0.8589380388248712,-0.5893313357949257
2024-10-23 10:49:10.105285,-0.03248012784421444,1.3855132779121397,-0.6148787417665124
2024-10-23 10:49:10.115293,0.00419452908039093,0.6905092253554612,-0.5599050425633788
2024-10-23 10:49:10.125300,0.1703741023182869,0.15892145533580332,-0.47389308488741516
2024-10-23 10:49:10.135307,0.3069137395739555,-0.12645406824215313,-0.5455693509578704
2024-10-23 10:49:10.145314,0.4316454501360655,-0.29077372022653,-0.595539250524342
2024-10-23 10:49:10.155321,0.3687631697654724,-0.12659856387991458,-0.6866030847623944
2024-10-23 10:49:10.165329,0.28744857612550256,0.11963880786988884,-0.6954653133928775
2024-10-23 10:49:10.175336,0.07207797873914241,0.23061565892174837,-0.6125125971570611
2024-10-23 10:49:10.185343,0.15343933413028715,-0.12594008170487359,-0.31979718654453754
2024-10-23 10:49:10.195350,0.4696025480866432,-0.5536811265472322,-0.028926527015864848
2024-10-23 10:49:10.205357,0.8316162435919046,-0.6189790166921914,-0.20855331858694554
2024-10-23 10:49:10.215364,1.103826334053278,-0.6228476017538458,-0.39906420000493525
2024-10-23 10:49:10.225372,1.8234972834199665,-1.0839749477662146,-0.7595259898930787
2024-10-23 10:49:10.235379,2.3297534456431865,-0.827065886811167,-0.8897218110799789
2024-10-23 10:49:10.245386,2.4636902069240807,0.29947968058306723,-1.3170622574985027
2024-10-23 10:49:10.255393,2.7430630286216733,1.1132693582464008,-2.4604139617323875
2024-10-23 10:49:10.265400,2.562661453285813,0.7655055757593363,-3.7102842589676377
2024-10-23 10:49:10.275408,-2.9196541057586667,0.5923721282629296,-0.9357862276405096
2024-10-23 10:49:10.285415,-6.386182215332984,2.214334922349453,3.0527555852591988
2024-10-23 10:49:10.295422,-0.6710790601551533,1.856026949494332,0.8481073596656322
2024-10-23 10:49:10.305429,0.5611421831429004,-0.949193844615668,0.5812146648347377
2024-10-23 10:49:10.315435,0.4083627742260694,-1.5815641116701065,1.4591682967096566
2024-10-23 10:49:10.325444,0.6443021123886108,-1.128788560548052,1.3090876253575086
2024-10-23 10:49:10.335451,1.149190785650909,-0.5341640502484515,1.0285177028298378
2024-10-23 10:49:10.345458,1.0133572508379816,0.3731855527849868,0.9452361930310725
2024-10-23 10:49:10.355465,0.203852593550086,1.1003834270577877,0.7992787390887737
2024-10-23 10:49:10.365472,-0.1491392988488078,1.236697658059746,1.1085878493666648
2024-10-23 10:49:10.375480,-1.4209113390296697,0.7971152774445712,3.6782805164635177
2024-10-23 10:49:10.385487,-0.6547048484593629,0.05944429614539258,1.8131676125854252
2024-10-23 10:49:10.395494,-0.03753770349472761,0.40951512259896844,0.289006911483407
2024-10-23 10:49:10.405501,0.2490504564091563,0.31525157900415357,-0.2575491124242544
2024-10-23 10:49:10.415508,0.06619125878810882,0.22365382055249064,-0.3698042032510042
2024-10-23 10:49:10.425515,-0.002994505640864372,-0.058047133565414695,-0.19650223078727722
2024-10-23 10:49:10.435523,0.02034779150187969,-0.3274888735583052,0.01026654247045517
2024-10-23 10:49:10.445530,0.2811091439709067,-0.20377059608874842,-0.18607494479715822
2024-10-23 10:49:10.455537,0.558123419843614,0.199719731529057,-0.8029886995226144
2024-10-23 10:49:10.465544,0.7671164450220763,0.5905445840422063,-1.4853817653745411
2024-10-23 10:49:10.475550,0.32844737985953687,0.3665842182911932,-0.44569326471090315
2024-10-23 10:49:10.485559,-0.13914149031713605,-0.22948053567828608,1.1398352205455302
2024-10-23 10:49:10.495565,0.0807534526258707,-0.5363648847609758,1.5246213043510912
2024-10-23 10:49:10.505572,0.5075295431599021,-0.33512744214534756,0.9472434412002563
2024-10-23 10:49:10.515579,0.18324322850257158,0.010767203735280782,0.09152093035578727
2024-10-23 10:49:10.525586,-0.24514058948904274,0.31482907927576453,-0.3924164325535297
2024-10-23 10:49:10.535594,-0.35521979758143424,0.39734818986728787,-0.7227946343451738
2024-10-23 10:49:10.545601,-0.10268149905651808,0.5186821112172678,-0.9023901539951562
2024-10-23 10:49:10.555609,0.15974135688394306,0.7626532550681382,-1.8380138845503329
2024-10-23 10:49:10.565615,0.43298692787289617,0.442165455910936,-3.044396337714791
2024-10-23 10:49:10.575622,0.30936800085827704,0.291448167155683,-2.720420404180884
2024-10-23 10:49:10.585630,0.001894946901127696,0.3009513240382075,-2.5730846476227045
2024-10-23 10:49:10.595637,0.05714885128512978,0.2227341118916869,-5.5073412792295215
2024-10-23 10:49:10.605644,0.6313805253647268,-0.23250077854860574,7.2575219820261
2024-10-23 10:49:10.615651,1.1347188273798674,-0.39348333113268014,7.439075650006532
2024-10-23 10:49:10.625659,0.27879513140749185,-0.5204589481640607,-1.8553923048526049
2024-10-23 10:49:10.635666,0.4246215428486466,-0.5190079456381499,-0.04717325458526611
2024-10-23 10:49:10.645674,0.1825974048797041,-0.00513766428255476,0.5011012636780738
2024-10-23 10:49:10.655680,0.16611377799268812,0.4326509739167988,-0.27716508252024646
2024-10-23 10:49:10.665687,0.267045035848394,0.4138342279070988,-0.1025344918012619
2024-10-23 10:49:10.675695,0.2584666656605899,0.3184659014081582,0.23878186811208724
2024-10-23 10:49:10.685702,0.1191722406709101,0.19796737143639473,-0.14250059148669242
2024-10-23 10:49:10.695709,0.12284748598439618,-0.032181610688520594,-0.050175359010696405
2024-10-23 10:49:10.705717,0.12926640398283487,-0.33378844862654805,0.12310323257744311
2024-10-23 10:49:10.715724,0.04101780069544911,-0.40048334608785807,-0.1091349129796028
2024-10-23 10:49:10.725730,0.07814783670473843,-0.35482013073936103,-0.0019920506000518797
2024-10-23 10:49:10.735737,0.12450963790980167,-0.14821191833820194,0.08285013264417648
2024-10-23 10:49:10.745745,0.14667778583979232,0.04744248171439394,-0.10763970598578453
2024-10-23 10:49:10.755752,0.1412447462067008,0.0965221361765638,-0.005433715486526489
2024-10-23 10:49:10.765759,0.14216831819186918,0.06633126091384328,0.02763327233493328
2024-10-23 10:49:10.775766,0.12387375115905888,0.04111832019416615,-0.08474223000109195
2024-10-23 10:49:10.785774,0.16772139585241674,0.07545142809445969,0.021800328397750854
2024-10-23 10:49:10.795781,0.15507526476904748,0.02315563373053446,-0.010666939964890479
2024-10-23 10:49:10.805789,0.14206281199078075,0.026440080494992434,-0.03191021900177002
2024-10-23 10:49:10.815795,0.1458782694925554,0.07620433795414865,0.013282675421237945
2024-10-23 10:49:10.825802,0.12598403957760893,0.029950627632904795,-0.027871757265925407
2024-10-23 10:49:10.835809,0.13805226117516867,0.059101528856018555,-0.0049789574563503265
2024-10-23 10:49:10.845817,0.14917144755274056,0.06900858123116195,0.00504851556122303
2024-10-23 10:49:10.855824,0.133851749878563,0.05552750629414804,-0.03490764725208282
2024-10-23 10:49:10.865831,0.144627356116008,0.032594173544785006,-0.00812543878853321
2024-10-23 10:49:10.875839,0.164413111554645,0.049435929687088355,0.017909166178107262
2024-10-23 10:49:10.885845,0.14326253403620792,0.06037748534227721,-0.04673252508044243
2024-10-23 10:49:10.895854,0.140716822475614,0.04775164812826551,-0.007082067215442657
2024-10-23 10:49:10.905860,0.1316038613539189,0.02634904121067375,0.012071546065807341
2024-10-23 10:49:10.915867,0.1451471422064118,0.03929909627721645,-0.04957914668321609
2024-10-23 10:49:10.925874,0.14306181469918228,0.05518901332109235,-0.005285246926546096
2024-10-23 10:49:10.935882,0.1399701596936211,0.060669243963621555,-0.003488426637649536
2024-10-23 10:49:10.945889,0.14450347400801256,0.05387773892628029,-0.030273557710647582
2024-10-23 10:49:10.955896,0.13968754335995762,0.06214240352241322,-0.0003495440900325775
2024-10-23 10:49:10.965904,0.1407252341109328,0.03160009360667318,-0.019954992792010306
2024-10-23 10:49:10.975910,0.15732530871815978,0.03968423227043822,-0.022350948017835617
2024-10-23 10:49:10.985917,0.15208433932475746,0.04235353367808275,-0.00035538930892944334
2024-10-23 10:49:10.995925,0.15055338516412303,0.06042444802285172,-0.018163433200120926
2024-10-23 10:49:11.005932,0.1389337749837432,0.0667913070404902,-0.0073918638169765466
2024-10-23 10:49:11.015940,0.14549851292734964,0.0450704644865822,9.118541479110717e-05
2024-10-23 10:49:11.025946,0.15288615722693502,0.046828788529150185,-0.016073182922601698
2024-10-23 10:49:11.035953,0.1532532004410401,0.05557582068159245,0.007267945176362991
2024-10-23 10:49:11.045960,0.1454291192192584,0.046440355467144395,-0.009492635488510131
2024-10-23 10:49:11.055969,0.15249555960730649,0.044727952925534914,-0.005454758274555206
2024-10-23 10:49:11.065976,0.15521512989746405,0.043578298833221195,0.009804770177602767
2024-10-23 10:49:11.075982,0.14045697509618474,0.06679524343009106,-0.016685177341103554
2024-10-23 10:49:11.085989,0.13460935417967848,0.050151631075236944,-0.009206219762563705
2024-10-23 10:49:11.095996,0.12862559446180238,0.052605399169214064,-0.010554127240180969
2024-10-23 10:49:11.106004,0.15351086499653754,0.05149520030445419,-0.011599836900830269
2024-10-23 10:49:11.116011,0.15982695280816406,0.041719354827236384,-0.014445873981714248
2024-10-23 10:49:11.126019,0.12800989198256282,0.03467009390285238,-0.00038110827207565303
2024-10-23 10:49:11.136025,0.14866391815571114,0.049936791881313544,-8.534019589424133e-05
2024-10-23 10:49:11.146032,0.14409621751452795,0.055504600342595946,-0.016100070929527283
2024-10-23 10:49:11.156040,0.1575793565444648,0.04077032874040305,-0.005031564426422119
2024-10-23 10:49:11.166047,0.1508993947233539,0.05681862381692044,-0.016555998003482817
2024-10-23 10:49:11.176054,0.14480224689203314,0.05427731443680823,-0.0020446575701236723
2024-10-23 10:49:11.186061,0.12123962152949534,0.045110951760597526,-0.00788403124809265
2024-10-23 10:49:11.196069,0.13251185217746533,0.04044176350631751,-0.030032734692096708
2024-10-23 10:49:11.206076,0.1333700216430705,0.04516570502198301,-0.019110358661413192
2024-10-23 10:49:11.216084,0.13197960846428758,0.049386939446209,0.0018389058649539945
2024-10-23 10:49:11.226090,0.1318459447477944,0.0528986464947462,-0.015669862818717954
2024-10-23 10:49:11.236097,0.13067852666992694,0.057117725494503974,-0.0004103343665599823
2024-10-23 10:49:11.246105,0.14223636932624503,0.05583005117098801,-0.01492810454070568
2024-10-23 10:49:11.256112,0.1483128944946453,0.05431797524075955,-0.02211363213062286
2024-10-23 10:49:11.266119,0.1391429333555512,0.04266504731266759,-0.017924363747239113
2024-10-23 10:49:11.276126,0.13733264166372827,0.04302414468233473,-0.008348726150393485
2024-10-23 10:49:11.286134,0.13148924026461317,0.06023991263564676,-0.08555822255909443
2024-10-23 10:49:11.296140,0.14637250101659446,0.057022859418438744,0.04687105676829815
2024-10-23 10:49:11.306149,0.13333084041015245,0.04973678493034094,-0.04366027802824974
2024-10-23 10:49:11.316155,0.1362235844432842,0.030882154595665633,0.027117139506340024
2024-10-23 10:49:11.326162,0.14875836410666815,0.03269934181915596,-0.002511106038093567
2024-10-23 10:49:11.336169,0.14891143577652982,0.0514838021276053,-0.15887772579193113
2024-10-23 10:49:11.346176,0.12782955784643998,0.0759316402263008,0.17047347103953361
2024-10-23 10:49:11.356184,0.1265342116731219,0.021521273994352667,0.06048164896965026
2024-10-23 10:49:11.366191,0.15872954949289558,0.036097697286866605,-0.18312720090746878
2024-10-23 10:49:11.376199,0.14099991373331286,0.04440053846891969,0.10402502261996269
2024-10-23 10:49:11.386205,0.10353094635955057,0.011605535989254713,-0.010452420431375503
2024-10-23 10:49:11.396212,0.13495338184437713,0.05674983289702795,-0.09230535873174667
2024-10-23 10:49:11.406219,0.15017054159268736,0.08897061568531207,0.05104980375766754
2024-10-23 10:49:11.416227,0.1397692211608868,0.01782399951214902,-0.02257423537969589
2024-10-23 10:49:11.426234,0.13589432508945465,0.04374195582917891,-0.03828618377447128
2024-10-23 10:49:11.436241,0.15201970399017445,0.07231539509105496,0.018274492359161378
2024-10-23 10:49:11.446248,0.1250748340445105,0.023474590886058286,-0.03484977958500385
2024-10-23 10:49:11.456255,0.11888832742930389,0.04960657354625873,-0.014953238981962203
2024-10-23 10:49:11.466264,0.14821605565720236,0.07782424903986974,-0.007621580919623374
2024-10-23 10:49:11.476271,0.1295122593695298,0.040293861201917754,-0.0061287120133638375
2024-10-23 10:49:11.486278,0.13846543595278635,0.06021197431595064,-0.006428571742773056
2024-10-23 10:49:11.496285,0.13734572947416454,0.06659666125122457,-0.027674773389101025
2024-10-23 10:49:11.506292,0.12733775574150494,0.02612861252618022,-0.004779050970077514
2024-10-23 10:49:11.516300,0.130784252066724,0.05200758853969164,-0.010020458754897116
2024-10-23 10:49:11.526307,0.15500185247296466,0.05090537205198779,-0.02468786653280258
2024-10-23 10:49:11.536314,0.13268424046915023,0.04205991189321503,-0.008976502659916877
2024-10-23 10:49:11.546321,0.1447748930942267,0.047566053295135496,0.003889408653974533
2024-10-23 10:49:11.556328,0.1457194987342693,0.05318070570598356,-0.011676993790268897
2024-10-23 10:49:11.566336,0.12203764917254448,0.04333010535896756,-0.005543605601787567
2024-10-23 10:49:11.576343,0.14206091229463927,0.04532285921191796,-0.008839724537730216
2024-10-23 10:49:11.586350,0.14829295681831425,0.036256504577770826,-0.013329437172412872
2024-10-23 10:49:11.596357,0.13918929324792698,0.046119315952388565,-0.026199440139532088
2024-10-23 10:49:11.606364,0.13005183700579218,0.046711938950140024,0.006416881304979324
2024-10-23 10:49:11.616372,0.1436372034343425,0.05350438470239751,-0.016628478717803954
2024-10-23 10:49:11.626379,0.12723632292733528,0.047750707413349296,0.003420622098445892
2024-10-23 10:49:11.636386,0.13356350752171128,0.05032534367432818,0.010751695638895034
2024-10-23 10:49:11.646393,0.13959289647960102,0.05569435989418998,-0.007052841120958328
2024-10-23 10:49:11.656400,0.1323142929119058,0.05445852535576559,-0.010643559089303017
2024-10-23 10:49:11.666408,0.14662822934333233,0.061306007497198875,-0.019621230792999267
2024-10-23 10:49:11.676415,0.14023998961094766,0.049275688490923494,-0.024259996509552
2024-10-23 10:49:11.686422,0.1209553886274807,0.04421750091905705,-0.010496844094991683
2024-10-23 10:49:11.696429,0.1215307316968683,0.05495455611124635,-0.013043021446466446
2024-10-23 10:49:11.706436,0.13888704976518637,0.05001992185381241,-0.01753448764681816
2024-10-23 10:49:11.716444,0.1167298798869364,0.058458792239381,-0.007210662031173706
2024-10-23 10:49:11.726451,0.12802711711199954,0.04623530701487325,-0.005716624081134796
2024-10-23 10:49:11.736458,0.12445363340624607,0.03508926002983935,-0.0073632222443819045
2024-10-23 10:49:11.746465,0.11999276327355764,0.050648840007651595,-0.005419686961174011
2024-10-23 10:49:11.756472,0.1409039699450135,0.03893221745989285,-0.0028770167410373687
2024-10-23 10:49:11.766480,0.1468662758829072,0.05713015571781434,-0.008414192602038384
2024-10-23 10:49:11.776487,0.1333594545832835,0.04716990271755494,-0.010362988582253456
2024-10-23 10:49:11.786494,0.12987013289649038,0.0387196798209101,-0.013210194706916808
2024-10-23 10:49:11.796501,0.1330205688845832,0.06273120886157267,-0.0030348376512527465
2024-10-23 10:49:11.806508,0.13228644592375494,0.0636806185408961,-0.02248889518380165
2024-10-23 10:49:11.816516,0.12638221771549432,0.0496186567096971,0.0036988545179367062
2024-10-23 10:49:11.826523,0.1377580366021022,0.03509748900206759,-0.010066635984182358
2024-10-23 10:49:11.836530,0.14073191958004608,0.045992200707690785,-0.008576105165481566
2024-10-23 10:49:11.846537,0.12621943750237113,0.0516812791947741,-0.008426467561721801
2024-10-23 10:49:11.856544,0.1280813771830406,0.03086655516773462,-0.0096247374355793
2024-10-23 10:49:11.866551,0.1392944249896798,0.03668509612022899,-0.004990063372254372
2024-10-23 10:49:11.876559,0.13021567666484044,0.04536919170483015,-0.020254852521419522
2024-10-23 10:49:11.886566,0.1419631236091256,0.03056877779755741,-0.0055909518748521805
2024-10-23 10:49:11.896573,0.13301027581943198,0.041915324923908336,0.0023415946900844573
2024-10-23 10:49:11.906580,0.13007440503062678,0.04611440231525339,-0.010081833553314209
2024-10-23 10:49:11.916587,0.1318045624246355,0.06271057706549764,-0.02235211706161499
2024-10-23 10:49:11.926595,0.12220533388964831,0.046378377880528565,-0.01561959393620491
2024-10-23 10:49:11.936602,0.12743154410533605,0.04328153524319641,-0.016068506747484206
2024-10-23 10:49:11.946609,0.1535732992408797,0.04758559824582189,-0.01172960076034069
2024-10-23 10:49:11.956616,0.13332568017784505,0.05859167050458491,-0.0011088380247354507
2024-10-23 10:49:11.966623,0.1281498941082973,0.050344605497224255,-0.007243395256996154
2024-10-23 10:49:11.976631,0.13606002791202626,0.04273009363920428,-0.010837035834789276
2024-10-23 10:49:11.986638,0.1457132607897278,0.030475135564198716,-0.022359131324291227
2024-10-23 10:49:11.996645,0.14558192602763884,0.051887021766789256,-0.022360884889960287
2024-10-23 10:49:12.006652,0.1356237736529205,0.037430051002325486,-0.01293430037498474
2024-10-23 10:49:12.016659,0.13426808472764679,0.0297742938184645,-0.007996259450912474
2024-10-23 10:49:12.026667,0.12331462857211008,0.03118191386037506,-0.010842881053686141
2024-10-23 10:49:12.036674,0.13151874948688783,0.04815590894706547,-0.005459434449672698
2024-10-23 10:49:12.046681,0.13519097172622568,0.0509089431154076,0.0038180969834327697
2024-10-23 10:49:12.056688,0.13902113360678775,0.05806312571899034,-0.010101707297563552
2024-10-23 10:49:12.066695,0.1191491977220401,0.049830856421962375,-0.01668693090677261
2024-10-23 10:49:12.076703,0.13299748026994057,0.03729557443507947,0.005758125135302544
2024-10-23 10:49:12.086710,0.10511234293263405,0.037584401313820855,-0.002921440404653549
2024-10-23 10:49:12.096717,0.10874388610171154,0.04983981604655273,0.0027647885382175445
2024-10-23 10:49:12.106724,0.14380815782076678,0.043736466803308574,0.002763619494438171
2024-10-23 10:49:12.116731,0.153916157861799,0.043525719262612984,-0.009058920246362685
2024-10-23 10:49:12.126739,0.13356451216870918,0.04600444826791063,0.0030582185268402096
2024-10-23 10:49:12.136746,0.12051844938178546,0.03501047743889503,-0.006668810239434242
2024-10-23 10:49:12.146753,0.12171175081958062,0.047397026004316285,-0.017591770792007445
2024-10-23 10:49:12.156760,0.12064403025652282,0.03889729227698408,-0.010858078622817992
2024-10-23 10:49:12.166767,0.13329717560256832,0.04939887647917494,-0.014151859471201896
2024-10-23 10:49:12.176775,0.13587164746676572,0.04724401826653629,-0.015203414350748061
2024-10-23 10:49:12.186782,0.12257419460150412,0.04269200838482939,-0.017149872243404387
2024-10-23 10:49:12.196789,0.11404819392175412,0.045904111432284116,-0.010115735822916031
2024-10-23 10:49:12.206796,0.12944482015650718,0.04679772667060606,-0.00966565396785736
2024-10-23 10:49:12.216803,0.13737081824964842,0.05421371114868671,-0.01490413914322853
2024-10-23 10:49:12.226811,0.1294685663582757,0.048162201690534125,-0.012958850294351577
2024-10-23 10:49:12.236818,0.13098266984880902,0.03926320297992788,-0.006074351477622986
2024-10-23 10:49:12.246825,0.12154432183080352,0.04486575396102853,-0.019095745614171027
2024-10-23 10:49:12.256832,0.12757318106573073,0.03937628056611866,-0.005032733470201492
2024-10-23 10:49:12.266839,0.13753696859679185,0.04970192367951386,-0.0038379707276821134
2024-10-23 10:49:12.276847,0.12514387155957518,0.04807040435438975,-0.022093173864483832
2024-10-23 10:49:12.286854,0.1393479361420497,0.036351416319608684,-0.006536123770475387
2024-10-23 10:49:12.296861,0.12370097927488385,0.0478776217286475,-0.026290625554323196
2024-10-23 10:49:12.306868,0.1218961218100041,0.03552880222457461,-0.01970774003267288
2024-10-23 10:49:12.316875,0.12544190465807914,0.0487724699428305,-0.008185060021281242
2024-10-23 10:49:12.326883,0.14511932261772453,0.04817639461266808,-0.010880290454626082
2024-10-23 10:49:12.336890,0.14316667244629933,0.044543828530283644,-0.007442132699489593
2024-10-23 10:49:12.346897,0.14580118566835298,0.03002990341419354,0.0016869301736354826
2024-10-23 10:49:12.356904,0.13692625281992368,0.051310829314030706,-0.0072936641395092
2024-10-23 10:49:12.366911,0.1354674049142748,0.05197055359808728,-0.006547814208269119
2024-10-23 10:49:12.376919,0.12789659520066343,0.0497211763692554,-0.006547229686379432
2024-10-23 10:49:12.386926,0.12766546245906502,0.03977398377996869,-0.02390928337574005
2024-10-23 10:49:12.396933,0.144262066467572,0.04814820969779975,-0.006404021823406219
2024-10-23 10:49:12.406940,0.144004566308856,0.05176108469902537,0.00466682276725769
2024-10-23 10:49:12.416947,0.1346849766991567,0.05762528229099698,-0.012390695017576217
2024-10-23 10:49:12.426955,0.14366799129825084,0.04408005607658997,-0.004458732974529266
2024-10-23 10:49:12.436962,0.1256943998481147,0.04571080821673386,-0.012243980023264885
2024-10-23 10:49:12.446969,0.13437781044612637,0.03746527757933363,-0.014938041412830352
2024-10-23 10:49:12.456976,0.12504186335667036,0.051363856409210706,-0.021969839745759962
2024-10-23 10:49:12.466983,0.134962697661994,0.04110508625325746,-0.007755436432361602
2024-10-23 10:49:12.476991,0.13946900523845104,0.037245049824239686,-0.014940379500389098
2024-10-23 10:49:12.486998,0.13951229639090595,0.05432210342660546,-0.002970540243387222
2024-10-23 10:49:12.497005,0.11715548488786444,0.05362292391499504,-0.0118032505184412
2024-10-23 10:49:12.507012,0.12823143491190858,0.04473009921684861,-0.016891513568162916
2024-10-23 10:49:12.517019,0.12597566447490827,0.04717260613129474,-0.0346995574593544
2024-10-23 10:49:12.527027,0.11993096835003234,0.04791430047722533,-0.006720832687616348
2024-10-23 10:49:12.537034,0.11821288498630747,0.04799148476612754,-0.005375263297557831
2024-10-23 10:49:12.547041,0.13071510495380498,0.051813627737015484,-0.0028349311649799344
2024-10-23 10:49:12.557048,0.11127491154982708,0.047473178246757015,-0.006575871258974075
2024-10-23 10:49:12.567055,0.13280416792123578,0.042121405422640965,-0.0029845687687397003
2024-10-23 10:49:12.577063,0.12531862533828242,0.0433069710785523,-0.018543372428417203
2024-10-23 10:49:12.587070,0.12597153628906235,0.056702641887590284,-0.01794482201337814
2024-10-23 10:49:12.597077,0.10934229951943271,0.05246050167265348,-0.010015198057889937
2024-10-23 10:49:12.607084,0.11783325628526509,0.03780992629854008,-0.0005903671085834502
2024-10-23 10:49:12.617091,0.12665400212788955,0.04495181567613035,-0.0011930091768503188
2024-10-23 10:49:12.627099,0.11219978957609272,0.053744212207105006,-0.00433481433391571
2024-10-23 10:49:12.637106,0.12290725334761664,0.04019200826263986,-0.005083002352714539
2024-10-23 10:49:12.647113,0.12098382013752125,0.06141304806824773,-0.0016419219881296156
2024-10-23 10:49:12.657120,0.11503745155427604,0.03591811206941493,-0.014213234269618987
2024-10-23 10:49:12.667127,0.12730425533070228,0.05031448435359634,0.004787234276533127
2024-10-23 10:49:12.677135,0.12746173831420018,0.0584616691830568,-0.007336334237456321
2024-10-23 10:49:12.687142,0.1254426901093684,0.0575722277963534,-0.01736146916747093
2024-10-23 10:49:12.697149,0.13616200871546752,0.04244037171131931,-0.008682488149404526
2024-10-23 10:49:12.707156,0.13293526522130705,0.038633910366753114,-0.020805472141504286
2024-10-23 10:49:12.717163,0.1301323914287146,0.03960271886629052,-0.016021160474419593
2024-10-23 10:49:12.727170,0.13551871497640386,0.04796967479311861,-0.01647182685136795
2024-10-23 10:49:12.737178,0.12493948982758447,0.05321761278342455,-0.01766834315955639
2024-10-23 10:49:12.747185,0.13502548809936268,0.04473362461449578,-0.03008884879350662
2024-10-23 10:49:12.757192,0.13538770900787786,0.039461995221348474,-0.022008418190479277
2024-10-23 10:49:12.767199,0.13738877403144722,0.044874028599029406,-0.01318096861243248
2024-10-23 10:49:12.777206,0.12564168328018857,0.05386627681734971,-0.01587444548010826
2024-10-23 10:49:12.787214,0.11918976719444617,0.047011698214849455,-0.013929156631231307
2024-10-23 10:49:12.797221,0.1230810116124805,0.05137214931352064,-0.014976619857549667
2024-10-23 10:49:12.807228,0.11718810851583257,0.04429556199079379,-0.025452421164512632
2024-10-23 10:49:12.817235,0.1279037281943485,0.052268687161291016,-0.01602700569331646
2024-10-23 10:49:12.827242,0.130344280613726,0.046034249751130116,-0.012137597039341926
2024-10-23 10:49:12.837250,0.12998637055414727,0.05653735005697235,-0.012438625812530517
2024-10-23 10:49:12.847257,0.14544339433978312,0.04269036441701464,-0.004959083712100983
2024-10-23 10:49:12.857264,0.1380215920422692,0.041537933845724906,-0.0042132337808609005
2024-10-23 10:49:12.867271,0.1239038449032232,0.045971048321807755,-0.0013718728750944137
2024-10-23 10:49:12.877278,0.12110512669594026,0.055472561236517504,-0.018434066835045813
2024-10-23 10:49:12.887286,0.12905983942691235,0.04449107542973943,-0.022922610425949095
2024-10-23 10:49:12.897293,0.11234979250603355,0.05372575410180725,-0.005866846206784248
2024-10-23 10:49:12.907300,0.12113246222743763,0.03746711334339343,-0.03370002502799034
2024-10-23 10:49:12.917307,0.12094624633979983,0.03864751876699738,-0.009161796098947525
2024-10-23 10:49:12.927314,0.12465896498630753,0.04571425141599029,-0.010210428369045257
2024-10-23 10:49:12.937322,0.11358695135186425,0.0447816650073044,-0.0013794716596603393
2024-10-23 10:49:12.947329,0.12802803956060668,0.054155733883753415,-0.012004910570383071
2024-10-23 10:49:12.957336,0.11564954643747768,0.04495230886647478,-0.001233341187238693
2024-10-23 10:49:12.967343,0.1342768982217647,0.04672359285531565,-0.012160393393039703
2024-10-23 10:49:12.977350,0.11412259259852581,0.04201853870321065,-0.006475333493947982
2024-10-23 10:49:12.987358,0.12736626944993623,0.04176460047475993,-0.009469254612922667
2024-10-23 10:49:12.997365,0.12905128166112118,0.03525889924201183,-0.01754968521595001
2024-10-23 10:49:13.007372,0.13224204965960235,0.037942046511918306,-0.0105178868830204
2024-10-23 10:49:13.017379,0.1413269537305925,0.044651435356913134,-0.0046808512926101685
2024-10-23 10:49:13.027386,0.12788649393175727,0.04472975215697661,-0.009172317492961882
2024-10-23 10:49:13.037394,0.12420617971750907,0.04797389431050978,-0.01336392396390438
2024-10-23 10:49:13.047401,0.11507530847978778,0.06089975565071217,0.002945405802130699
2024-10-23 10:49:13.057408,0.12092424457054585,0.043473879477521404,-0.018901099824905395
2024-10-23 10:49:13.067415,0.11789888713369145,0.0491952527990099,-0.015310966378450393
2024-10-23 10:49:13.077422,0.13764966259049252,0.04109011701298877,-0.007681786674261093
2024-10-23 10:49:13.087430,0.12733075974513774,0.046154359866306185,-0.030728315740823745
2024-10-23 10:49:13.097437,0.10914773592855781,0.05646445835069753,-0.0018470891714096069
2024-10-23 10:49:13.107444,0.1141485124910716,0.04455984808332287,-0.013517653220891952
2024-10-23 10:49:13.117451,0.12268086984637193,0.05483458299338817,-0.022346271842718122
2024-10-23 10:49:13.127458,0.12935203643967397,0.05454186539081856,-0.00035071313381195067
2024-10-23 10:49:13.137466,0.12328753963578491,0.0419399205090478,-0.002146364378929138
2024-10-23 10:49:13.147473,0.11813238536231219,0.050150918689183886,-0.016063830572366714
2024-10-23 10:49:13.157480,0.11862411440201102,0.05664964219187386,-0.0003542202651500702
2024-10-23 10:49:13.167487,0.11682410664218477,0.045840645141480486,-0.0029015666604042052
2024-10-23 10:49:13.177494,0.13023596140104346,0.06330065191313625,-0.0033498949497938156
2024-10-23 10:49:13.187502,0.11250131153962574,0.03335263636242598,0.009070610684156417
2024-10-23 10:49:13.197509,0.12353823559437878,0.045938799153175204,0.0038309564650058745
2024-10-23 10:49:13.207516,0.14536357970237732,0.05397529928293079,-0.01816986294090748
2024-10-23 10:49:13.217523,0.11897727522123604,0.04243680978105403,-0.02266191366314888
2024-10-23 10:49:13.227530,0.10976005000746808,0.05135860484535806,-0.011290624821186064
2024-10-23 10:49:13.237538,0.11262346748141572,0.04550290108709596,-0.007400631645321846
2024-10-23 10:49:13.247545,0.1381387704148423,0.055368324543908234,-0.007552607336640357
2024-10-23 10:49:13.257552,0.14150481278183868,0.04766743131037801,-0.0029191023170948025
2024-10-23 10:49:13.267559,0.1320933162381407,0.03389745642938651,-0.019830489629507064
2024-10-23 10:49:13.277566,0.13496866161189972,0.047312562591256574,-0.022526304584741592
2024-10-23 10:49:13.287574,0.13069009837671183,0.057387719808612014,-0.01160451307594776
2024-10-23 10:49:13.297581,0.12529298857352697,0.04476403801906854,-0.015346037691831588
2024-10-23 10:49:13.307588,0.10992764339302666,0.046830094570247456,-0.011308160477876663
2024-10-23 10:49:13.317595,0.11140346069978549,0.05375858779232949,-0.019840426501631734
2024-10-23 10:49:13.327602,0.11913659396879374,0.052760233537899326,-0.010415011030435562
2024-10-23 10:49:13.337610,0.12019416759717277,0.05016608885885216,0.0014063596665859221
2024-10-23 10:49:13.347617,0.1173825807751622,0.044998906220868225,0.0026046295404434203
2024-10-23 10:49:13.357624,0.1248019810530357,0.05077642104323022,-0.00876899738907814
2024-10-23 10:49:13.367631,0.12994919861522503,0.03408687805426307,-0.012809797212481497
2024-10-23 10:49:13.377638,0.1191705784367863,0.043265725752711294,-0.012958850294351577
2024-10-23 10:49:13.387646,0.1098845440368168,0.0639467860632576,-0.01146422782242298
2024-10-23 10:49:13.397653,0.12467526766713707,0.04963161665596999,-0.0018903437912464142
2024-10-23 10:49:13.407660,0.13360628721751272,0.05070181230390444,-0.017451485538482664
2024-10-23 10:49:13.417667,0.10625981420101598,0.04784982953942381,-0.014459902507066726
2024-10-23 10:49:13.427674,0.11041683341576718,0.03089116901918314,-0.006978022319078445
